Import_Stim.thisRepN,Import_Stim.thisTrialN,Import_Stim.thisN,Import_Stim.thisIndex,Import_Stim.ran,StimNum,Key,KeyNum,Symb,Symb_R,Symb_G,X_pos,Y_pos,Hand,Sound_P,Sound_N,Beep,participant,date,expName,psychopyVersion,OS,browser,browserInfo,frameRate,symb_map,stop_ind,resp_ind,Remap_Pair_1,Remap_Pair_2,Probe_Pair_1,Instr_Exp_Key.keys,Instr_Exp_Key.rt,Instr_Sound_Check_Press.keys,Instr_Sound_Check_Press.rt,Instr_Sound_Check_Press_Space.keys,Instr_Sound_Check_Iter.thisRepN,Instr_Sound_Check_Iter.thisTrialN,Instr_Sound_Check_Iter.thisN,Instr_Sound_Check_Iter.thisIndex,Instr_Sound_Check_Iter.ran,Instr_Sound_Check_Press_Space.rt,Sound_check_Creat_StimSeq_Text_Press.keys,sound_check,sound_check_press,sound_check_rt,sound_check_correct,sound_check_trial_count,Sound_Check_Press.keys,Sound_Check_Press.rt,Sound_Check_Iter.thisRepN,Sound_Check_Iter.thisTrialN,Sound_Check_Iter.thisN,Sound_Check_Iter.thisIndex,Sound_Check_Iter.ran,Instr_RT_Hand_Key.keys,Instr_RT_Hand_Key.rt,stim_val,proposed_choice,key_num,stim_type,key,block_type,remap,repeat_count,trial_Count,grp_stop,grp_swap,block_num,prep_time,session,actual_press,rt,actual_choice,correct,RT_Press_Hand.keys,RT_Press_Hand.corr,RT_Press_Hand.rt,RT_Iter_Hand.thisRepN,RT_Iter_Hand.thisTrialN,RT_Iter_Hand.thisN,RT_Iter_Hand.thisIndex,RT_Iter_Hand.ran,Instr_HAND_TR_press.keys,Instr_HAND_TR_press.rt,Instr_Block_Num_Press.keys,Instr_Block_Num_Press.rt,TR_Press_Hand.keys,TR_Press_Hand.corr,TR_Penalty_Press.keys,TR_Penalty_Press.rt,TR_Penalty_Bool_Hand.thisRepN,TR_Penalty_Bool_Hand.thisTrialN,TR_Penalty_Bool_Hand.thisN,TR_Penalty_Bool_Hand.thisIndex,TR_Penalty_Bool_Hand.ran,TR_Iter_Hand.thisRepN,TR_Iter_Hand.thisTrialN,TR_Iter_Hand.thisN,TR_Iter_Hand.thisIndex,TR_Iter_Hand.ran,TR_Press_Hand.rt,TR_Feedback_Bool_Hand.thisRepN,TR_Feedback_Bool_Hand.thisTrialN,TR_Feedback_Bool_Hand.thisN,TR_Feedback_Bool_Hand.thisIndex,TR_Feedback_Bool_Hand.ran,TR_Block_Hand.thisRepN,TR_Block_Hand.thisTrialN,TR_Block_Hand.thisN,TR_Block_Hand.thisIndex,TR_Block_Hand.ran,Instr_Round_Num_Press.keys,Instr_Round_Num_Press.rt,Instr_CR_Old_Press.keys,Instr_CR_Old_Press.rt,symb_map_shuffle,RT_Press_Stop.keys,RT_Press_Stop.corr,RT_Press_Stop.rt,CR_New_Iter_Stop.thisRepN,CR_New_Iter_Stop.thisTrialN,CR_New_Iter_Stop.thisN,CR_New_Iter_Stop.thisIndex,CR_New_Iter_Stop.ran,Instr_RT_Press.keys,Instr_RT_Press.rt,RT_Iter.thisRepN,RT_Iter.thisTrialN,RT_Iter.thisN,RT_Iter.thisIndex,RT_Iter.ran,Prac_Old_Iter.thisRepN,Prac_Old_Iter.thisTrialN,Prac_Old_Iter.thisN,Prac_Old_Iter.thisIndex,Prac_Old_Iter.ran,Instr_CR_New_Press.keys,Instr_CR_New_Press.rt,Instr_TR_Old_Post_Press_3.keys,Instr_TR_Old_Post_Press_3.rt,TR_Press_Stop.keys,TR_Press_Stop.corr,TR_Press_Stop.rt,TR_Feedback_New_Stop_Bool.thisRepN,TR_Feedback_New_Stop_Bool.thisTrialN,TR_Feedback_New_Stop_Bool.thisN,TR_Feedback_New_Stop_Bool.thisIndex,TR_Feedback_New_Stop_Bool.ran,TR_Iter_New_Stop.thisRepN,TR_Iter_New_Stop.thisTrialN,TR_Iter_New_Stop.thisN,TR_Iter_New_Stop.thisIndex,TR_Iter_New_Stop.ran,TR_New_Block_Stop.thisRepN,TR_New_Block_Stop.thisTrialN,TR_New_Block_Stop.thisN,TR_New_Block_Stop.thisIndex,TR_New_Block_Stop.ran,TR_Penalty_New_Stop_Bool.thisRepN,TR_Penalty_New_Stop_Bool.thisTrialN,TR_Penalty_New_Stop_Bool.thisN,TR_Penalty_New_Stop_Bool.thisIndex,TR_Penalty_New_Stop_Bool.ran,Instr_End_Exp_Key.keys,Instr_End_Exp_Key.rt
0,0,0,0,1,0,h,0,media/djnb.png,media/djnb_r.png,media/djnb_g.png,-0.038,0.075,media/hand.png,media/coin.mp3,media/buzz.mp3,media/beep.mp3,2,2022-02-14_11h57.42.695,Initiation_Initiation,2020.1.3,MacIntel,Chrome,"Mozilla/5.0 (Macintosh; Intel Mac OS X 10_15_7) AppleWebKit/537.36 (KHTML, like Gecko) Chrome/98.0.4758.80 Safari/537.36",60,,,,,,,,,,,,,,,,,,,,,,,,,,,,,,,,,,,,,,,,,,,,,,,,,,,,,,,,,,,,,,,,,,,,,,,,,,,,,,,,,,,,,,,,,,,,,,,,,,,,,,,,,,,,,,,,,,,,,,,,,,,,,,,,,,,,,,,,,,,,,
0,1,1,1,1,1,u,1,media/dnnb.png,media/dnnb_r.png,media/dnnb_g.png,0.014,0.1,,,,,2,2022-02-14_11h57.42.695,Initiation_Initiation,2020.1.3,MacIntel,Chrome,"Mozilla/5.0 (Macintosh; Intel Mac OS X 10_15_7) AppleWebKit/537.36 (KHTML, like Gecko) Chrome/98.0.4758.80 Safari/537.36",60,,,,,,,,,,,,,,,,,,,,,,,,,,,,,,,,,,,,,,,,,,,,,,,,,,,,,,,,,,,,,,,,,,,,,,,,,,,,,,,,,,,,,,,,,,,,,,,,,,,,,,,,,,,,,,,,,,,,,,,,,,,,,,,,,,,,,,,,,,,,,
0,2,2,2,1,2,i,2,media/dinb.png,media/dinb_r.png,media/dinb_g.png,0.057,0.08,,,,,2,2022-02-14_11h57.42.695,Initiation_Initiation,2020.1.3,MacIntel,Chrome,"Mozilla/5.0 (Macintosh; Intel Mac OS X 10_15_7) AppleWebKit/537.36 (KHTML, like Gecko) Chrome/98.0.4758.80 Safari/537.36",60,,,,,,,,,,,,,,,,,,,,,,,,,,,,,,,,,,,,,,,,,,,,,,,,,,,,,,,,,,,,,,,,,,,,,,,,,,,,,,,,,,,,,,,,,,,,,,,,,,,,,,,,,,,,,,,,,,,,,,,,,,,,,,,,,,,,,,,,,,,,,
0,3,3,3,1,3,l,3,media/dgnb.png,media/dgnb_r.png,media/dgnb_g.png,0.1,0.04,,,,,2,2022-02-14_11h57.42.695,Initiation_Initiation,2020.1.3,MacIntel,Chrome,"Mozilla/5.0 (Macintosh; Intel Mac OS X 10_15_7) AppleWebKit/537.36 (KHTML, like Gecko) Chrome/98.0.4758.80 Safari/537.36",60,,,,,,,,,,,,,,,,,,,,,,,,,,,,,,,,,,,,,,,,,,,,,,,,,,,,,,,,,,,,,,,,,,,,,,,,,,,,,,,,,,,,,,,,,,,,,,,,,,,,,,,,,,,,,,,,,,,,,,,,,,,,,,,,,,,,,,,,,,,,,
0,4,4,4,1,4,h,0,media/ddnb.png,media/ddnb_r.png,media/ddnb_g.png,-0.038,0.075,,,,,2,2022-02-14_11h57.42.695,Initiation_Initiation,2020.1.3,MacIntel,Chrome,"Mozilla/5.0 (Macintosh; Intel Mac OS X 10_15_7) AppleWebKit/537.36 (KHTML, like Gecko) Chrome/98.0.4758.80 Safari/537.36",60,,,,,,,,,,,,,,,,,,,,,,,,,,,,,,,,,,,,,,,,,,,,,,,,,,,,,,,,,,,,,,,,,,,,,,,,,,,,,,,,,,,,,,,,,,,,,,,,,,,,,,,,,,,,,,,,,,,,,,,,,,,,,,,,,,,,,,,,,,,,,
0,5,5,5,1,5,u,1,media/dfnb.png,media/dfnb_r.png,media/dfnb_g.png,0.014,0.1,,,,,2,2022-02-14_11h57.42.695,Initiation_Initiation,2020.1.3,MacIntel,Chrome,"Mozilla/5.0 (Macintosh; Intel Mac OS X 10_15_7) AppleWebKit/537.36 (KHTML, like Gecko) Chrome/98.0.4758.80 Safari/537.36",60,,,,,,,,,,,,,,,,,,,,,,,,,,,,,,,,,,,,,,,,,,,,,,,,,,,,,,,,,,,,,,,,,,,,,,,,,,,,,,,,,,,,,,,,,,,,,,,,,,,,,,,,,,,,,,,,,,,,,,,,,,,,,,,,,,,,,,,,,,,,,
0,6,6,6,1,6,i,2,media/dcnb.png,media/dcnb_r.png,media/dcnb_g.png,0.057,0.08,,,,,2,2022-02-14_11h57.42.695,Initiation_Initiation,2020.1.3,MacIntel,Chrome,"Mozilla/5.0 (Macintosh; Intel Mac OS X 10_15_7) AppleWebKit/537.36 (KHTML, like Gecko) Chrome/98.0.4758.80 Safari/537.36",60,,,,,,,,,,,,,,,,,,,,,,,,,,,,,,,,,,,,,,,,,,,,,,,,,,,,,,,,,,,,,,,,,,,,,,,,,,,,,,,,,,,,,,,,,,,,,,,,,,,,,,,,,,,,,,,,,,,,,,,,,,,,,,,,,,,,,,,,,,,,,
,,,,,,,,,,,,,,,,,2,2022-02-14_11h57.42.695,Initiation_Initiation,2020.1.3,MacIntel,Chrome,"Mozilla/5.0 (Macintosh; Intel Mac OS X 10_15_7) AppleWebKit/537.36 (KHTML, like Gecko) Chrome/98.0.4758.80 Safari/537.36",60,"[6,2,4,5,3,7,0,1]","[0,1,2,3]","[5,6,7,4]","[1,2]","[0,3]","[4,7]",space,276.974,f,15.7069,,0,0,0,0,1,,,,,,,,,,,,,,,,,,,,,,,,,,,,,,,,,,,,,,,,,,,,,,,,,,,,,,,,,,,,,,,,,,,,,,,,,,,,,,,,,,,,,,,,,,,,,,,,,,,,,,,,,,,,,,,,,,,,,,,,,,,,,
,,,,,,,,,,,,,,,,,2,2022-02-14_11h57.42.695,Initiation_Initiation,2020.1.3,MacIntel,Chrome,"Mozilla/5.0 (Macintosh; Intel Mac OS X 10_15_7) AppleWebKit/537.36 (KHTML, like Gecko) Chrome/98.0.4758.80 Safari/537.36",60,,,,,,,,,j,0.7638,,1,0,1,0,1,,,,,,,,,,,,,,,,,,,,,,,,,,,,,,,,,,,,,,,,,,,,,,,,,,,,,,,,,,,,,,,,,,,,,,,,,,,,,,,,,,,,,,,,,,,,,,,,,,,,,,,,,,,,,,,,,,,,,,,,,,,,,
,,,,,,,,,,,,,,,,,2,2022-02-14_11h57.42.695,Initiation_Initiation,2020.1.3,MacIntel,Chrome,"Mozilla/5.0 (Macintosh; Intel Mac OS X 10_15_7) AppleWebKit/537.36 (KHTML, like Gecko) Chrome/98.0.4758.80 Safari/537.36",60,,,,,,,,,f,0.5942,,2,0,2,0,1,,,,,,,,,,,,,,,,,,,,,,,,,,,,,,,,,,,,,,,,,,,,,,,,,,,,,,,,,,,,,,,,,,,,,,,,,,,,,,,,,,,,,,,,,,,,,,,,,,,,,,,,,,,,,,,,,,,,,,,,,,,,,
,,,,,,,,,,,,,,,,,2,2022-02-14_11h57.42.695,Initiation_Initiation,2020.1.3,MacIntel,Chrome,"Mozilla/5.0 (Macintosh; Intel Mac OS X 10_15_7) AppleWebKit/537.36 (KHTML, like Gecko) Chrome/98.0.4758.80 Safari/537.36",60,,,,,,,,,j,0.4088,,3,0,3,0,1,,,,,,,,,,,,,,,,,,,,,,,,,,,,,,,,,,,,,,,,,,,,,,,,,,,,,,,,,,,,,,,,,,,,,,,,,,,,,,,,,,,,,,,,,,,,,,,,,,,,,,,,,,,,,,,,,,,,,,,,,,,,,
,,,,,,,,,,,,,,,,,2,2022-02-14_11h57.42.695,Initiation_Initiation,2020.1.3,MacIntel,Chrome,"Mozilla/5.0 (Macintosh; Intel Mac OS X 10_15_7) AppleWebKit/537.36 (KHTML, like Gecko) Chrome/98.0.4758.80 Safari/537.36",60,,,,,,,,,,,space,4,0,4,0,1,3.3743,,,,,,,,,,,,,,,,,,,,,,,,,,,,,,,,,,,,,,,,,,,,,,,,,,,,,,,,,,,,,,,,,,,,,,,,,,,,,,,,,,,,,,,,,,,,,,,,,,,,,,,,,,,,,,,,,,,,,,,,,,,,
,,,,,,,,,,,,,,,,,2,2022-02-14_11h57.42.695,Initiation_Initiation,2020.1.3,MacIntel,Chrome,"Mozilla/5.0 (Macintosh; Intel Mac OS X 10_15_7) AppleWebKit/537.36 (KHTML, like Gecko) Chrome/98.0.4758.80 Safari/537.36",60,,,,,,,,,,,,,,,,,,space,buzz,j,-0.6269,-1,2,j,0.3731,0,0,0,0,1,,,,,,,,,,,,,,,,,,,,,,,,,,,,,,,,,,,,,,,,,,,,,,,,,,,,,,,,,,,,,,,,,,,,,,,,,,,,,,,,,,,,,,,,,,,,,,,,,,,,,,,,,,,,,,,
,,,,,,,,,,,,,,,,,2,2022-02-14_11h57.42.695,Initiation_Initiation,2020.1.3,MacIntel,Chrome,"Mozilla/5.0 (Macintosh; Intel Mac OS X 10_15_7) AppleWebKit/537.36 (KHTML, like Gecko) Chrome/98.0.4758.80 Safari/537.36",60,,,,,,,,,,,,,,,,,,,coin,f,-0.9488,-1,3,f,0.0512,1,0,1,0,1,,,,,,,,,,,,,,,,,,,,,,,,,,,,,,,,,,,,,,,,,,,,,,,,,,,,,,,,,,,,,,,,,,,,,,,,,,,,,,,,,,,,,,,,,,,,,,,,,,,,,,,,,,,,,,,
,,,,,,,,,,,,,,,,,2,2022-02-14_11h57.42.695,Initiation_Initiation,2020.1.3,MacIntel,Chrome,"Mozilla/5.0 (Macintosh; Intel Mac OS X 10_15_7) AppleWebKit/537.36 (KHTML, like Gecko) Chrome/98.0.4758.80 Safari/537.36",60,,,,,,,,,,,,,,,,,,,buzz,j,-0.9176,-1,4,j,0.0824,2,0,2,0,1,,,,,,,,,,,,,,,,,,,,,,,,,,,,,,,,,,,,,,,,,,,,,,,,,,,,,,,,,,,,,,,,,,,,,,,,,,,,,,,,,,,,,,,,,,,,,,,,,,,,,,,,,,,,,,,
,,,,,,,,,,,,,,,,,2,2022-02-14_11h57.42.695,Initiation_Initiation,2020.1.3,MacIntel,Chrome,"Mozilla/5.0 (Macintosh; Intel Mac OS X 10_15_7) AppleWebKit/537.36 (KHTML, like Gecko) Chrome/98.0.4758.80 Safari/537.36",60,,,,,,,,,,,,,,,,,,,coin,f,1.3466,-1,5,f,2.3466,3,0,3,0,1,,,,,,,,,,,,,,,,,,,,,,,,,,,,,,,,,,,,,,,,,,,,,,,,,,,,,,,,,,,,,,,,,,,,,,,,,,,,,,,,,,,,,,,,,,,,,,,,,,,,,,,,,,,,,,,
,,,,,,,,,,,,,,,,,2,2022-02-14_11h57.42.695,Initiation_Initiation,2020.1.3,MacIntel,Chrome,"Mozilla/5.0 (Macintosh; Intel Mac OS X 10_15_7) AppleWebKit/537.36 (KHTML, like Gecko) Chrome/98.0.4758.80 Safari/537.36",60,,,,,,,,,,,,,,,,,,,,,,,,,,,,,,,h,12.3074,0,0,0,Hand,h,RT,0,0,0,1,0,1,99,1,u,0.6601,1,0,u,0,0.6601,0,0,0,0,1,,,,,,,,,,,,,,,,,,,,,,,,,,,,,,,,,,,,,,,,,,,,,,,,,,,,,,,,,,,,,,,,,,,,,,,,,,,,,,,,,,,
,,,,,,,,,,,,,,,,,2,2022-02-14_11h57.42.695,Initiation_Initiation,2020.1.3,MacIntel,Chrome,"Mozilla/5.0 (Macintosh; Intel Mac OS X 10_15_7) AppleWebKit/537.36 (KHTML, like Gecko) Chrome/98.0.4758.80 Safari/537.36",60,,,,,,,,,,,,,,,,,,,,,,,,,,,,,,,,,1,1,1,Hand,u,RT,0,0,1,1,0,1,99,1,h,0.2602,0,0,h,0,0.2602,1,0,1,0,1,,,,,,,,,,,,,,,,,,,,,,,,,,,,,,,,,,,,,,,,,,,,,,,,,,,,,,,,,,,,,,,,,,,,,,,,,,,,,,,,,,,
,,,,,,,,,,,,,,,,,2,2022-02-14_11h57.42.695,Initiation_Initiation,2020.1.3,MacIntel,Chrome,"Mozilla/5.0 (Macintosh; Intel Mac OS X 10_15_7) AppleWebKit/537.36 (KHTML, like Gecko) Chrome/98.0.4758.80 Safari/537.36",60,,,,,,,,,,,,,,,,,,,,,,,,,,,,,,,,,3,3,3,Hand,l,RT,0,0,2,1,0,1,99,1,l,0.7293,3,1,l,1,0.7293,2,0,2,0,1,,,,,,,,,,,,,,,,,,,,,,,,,,,,,,,,,,,,,,,,,,,,,,,,,,,,,,,,,,,,,,,,,,,,,,,,,,,,,,,,,,,
,,,,,,,,,,,,,,,,,2,2022-02-14_11h57.42.695,Initiation_Initiation,2020.1.3,MacIntel,Chrome,"Mozilla/5.0 (Macintosh; Intel Mac OS X 10_15_7) AppleWebKit/537.36 (KHTML, like Gecko) Chrome/98.0.4758.80 Safari/537.36",60,,,,,,,,,,,,,,,,,,,,,,,,,,,,,,,,,0,0,0,Hand,h,RT,0,0,3,1,0,1,99,1,h,0.4793,0,1,h,1,0.4793,3,0,3,0,1,,,,,,,,,,,,,,,,,,,,,,,,,,,,,,,,,,,,,,,,,,,,,,,,,,,,,,,,,,,,,,,,,,,,,,,,,,,,,,,,,,,
,,,,,,,,,,,,,,,,,2,2022-02-14_11h57.42.695,Initiation_Initiation,2020.1.3,MacIntel,Chrome,"Mozilla/5.0 (Macintosh; Intel Mac OS X 10_15_7) AppleWebKit/537.36 (KHTML, like Gecko) Chrome/98.0.4758.80 Safari/537.36",60,,,,,,,,,,,,,,,,,,,,,,,,,,,,,,,,,3,3,3,Hand,l,RT,0,0,4,1,0,1,99,1,l,0.4574,3,1,l,1,0.4574,4,0,4,0,1,,,,,,,,,,,,,,,,,,,,,,,,,,,,,,,,,,,,,,,,,,,,,,,,,,,,,,,,,,,,,,,,,,,,,,,,,,,,,,,,,,,
,,,,,,,,,,,,,,,,,2,2022-02-14_11h57.42.695,Initiation_Initiation,2020.1.3,MacIntel,Chrome,"Mozilla/5.0 (Macintosh; Intel Mac OS X 10_15_7) AppleWebKit/537.36 (KHTML, like Gecko) Chrome/98.0.4758.80 Safari/537.36",60,,,,,,,,,,,,,,,,,,,,,,,,,,,,,,,,,2,2,2,Hand,i,RT,0,0,5,1,0,1,99,1,i,0.475,2,1,i,1,0.475,5,0,5,0,1,,,,,,,,,,,,,,,,,,,,,,,,,,,,,,,,,,,,,,,,,,,,,,,,,,,,,,,,,,,,,,,,,,,,,,,,,,,,,,,,,,,
,,,,,,,,,,,,,,,,,2,2022-02-14_11h57.42.695,Initiation_Initiation,2020.1.3,MacIntel,Chrome,"Mozilla/5.0 (Macintosh; Intel Mac OS X 10_15_7) AppleWebKit/537.36 (KHTML, like Gecko) Chrome/98.0.4758.80 Safari/537.36",60,,,,,,,,,,,,,,,,,,,,,,,,,,,,,,,,,1,1,1,Hand,u,RT,0,0,6,1,0,1,99,1,u,0.3787,1,1,u,1,0.3787,6,0,6,0,1,,,,,,,,,,,,,,,,,,,,,,,,,,,,,,,,,,,,,,,,,,,,,,,,,,,,,,,,,,,,,,,,,,,,,,,,,,,,,,,,,,,
,,,,,,,,,,,,,,,,,2,2022-02-14_11h57.42.695,Initiation_Initiation,2020.1.3,MacIntel,Chrome,"Mozilla/5.0 (Macintosh; Intel Mac OS X 10_15_7) AppleWebKit/537.36 (KHTML, like Gecko) Chrome/98.0.4758.80 Safari/537.36",60,,,,,,,,,,,,,,,,,,,,,,,,,,,,,,,,,2,2,2,Hand,i,RT,0,0,7,1,0,1,99,1,i,0.4604,2,1,i,1,0.4604,7,0,7,0,1,,,,,,,,,,,,,,,,,,,,,,,,,,,,,,,,,,,,,,,,,,,,,,,,,,,,,,,,,,,,,,,,,,,,,,,,,,,,,,,,,,,
,,,,,,,,,,,,,,,,,2,2022-02-14_11h57.42.695,Initiation_Initiation,2020.1.3,MacIntel,Chrome,"Mozilla/5.0 (Macintosh; Intel Mac OS X 10_15_7) AppleWebKit/537.36 (KHTML, like Gecko) Chrome/98.0.4758.80 Safari/537.36",60,,,,,,,,,,,,,,,,,,,,,,,,,,,,,,,,,2,2,2,Hand,i,RT,0,0,8,1,0,1,99,1,i,0.429,2,1,i,1,0.429,8,0,8,0,1,,,,,,,,,,,,,,,,,,,,,,,,,,,,,,,,,,,,,,,,,,,,,,,,,,,,,,,,,,,,,,,,,,,,,,,,,,,,,,,,,,,
,,,,,,,,,,,,,,,,,2,2022-02-14_11h57.42.695,Initiation_Initiation,2020.1.3,MacIntel,Chrome,"Mozilla/5.0 (Macintosh; Intel Mac OS X 10_15_7) AppleWebKit/537.36 (KHTML, like Gecko) Chrome/98.0.4758.80 Safari/537.36",60,,,,,,,,,,,,,,,,,,,,,,,,,,,,,,,,,3,3,3,Hand,l,RT,0,0,9,1,0,1,99,1,l,0.3933,3,1,l,1,0.3933,9,0,9,0,1,,,,,,,,,,,,,,,,,,,,,,,,,,,,,,,,,,,,,,,,,,,,,,,,,,,,,,,,,,,,,,,,,,,,,,,,,,,,,,,,,,,
,,,,,,,,,,,,,,,,,2,2022-02-14_11h57.42.695,Initiation_Initiation,2020.1.3,MacIntel,Chrome,"Mozilla/5.0 (Macintosh; Intel Mac OS X 10_15_7) AppleWebKit/537.36 (KHTML, like Gecko) Chrome/98.0.4758.80 Safari/537.36",60,,,,,,,,,,,,,,,,,,,,,,,,,,,,,,,,,2,2,2,Hand,i,RT,0,0,10,1,0,1,99,1,i,0.3763,2,1,i,1,0.3763,10,0,10,0,1,,,,,,,,,,,,,,,,,,,,,,,,,,,,,,,,,,,,,,,,,,,,,,,,,,,,,,,,,,,,,,,,,,,,,,,,,,,,,,,,,,,
,,,,,,,,,,,,,,,,,2,2022-02-14_11h57.42.695,Initiation_Initiation,2020.1.3,MacIntel,Chrome,"Mozilla/5.0 (Macintosh; Intel Mac OS X 10_15_7) AppleWebKit/537.36 (KHTML, like Gecko) Chrome/98.0.4758.80 Safari/537.36",60,,,,,,,,,,,,,,,,,,,,,,,,,,,,,,,,,3,3,3,Hand,l,RT,0,0,11,1,0,1,99,1,l,0.3746,3,1,l,1,0.3746,11,0,11,0,1,,,,,,,,,,,,,,,,,,,,,,,,,,,,,,,,,,,,,,,,,,,,,,,,,,,,,,,,,,,,,,,,,,,,,,,,,,,,,,,,,,,
,,,,,,,,,,,,,,,,,2,2022-02-14_11h57.42.695,Initiation_Initiation,2020.1.3,MacIntel,Chrome,"Mozilla/5.0 (Macintosh; Intel Mac OS X 10_15_7) AppleWebKit/537.36 (KHTML, like Gecko) Chrome/98.0.4758.80 Safari/537.36",60,,,,,,,,,,,,,,,,,,,,,,,,,,,,,,,,,1,1,1,Hand,u,RT,0,0,12,1,0,1,99,1,u,0.5206,1,1,u,1,0.5206,12,0,12,0,1,,,,,,,,,,,,,,,,,,,,,,,,,,,,,,,,,,,,,,,,,,,,,,,,,,,,,,,,,,,,,,,,,,,,,,,,,,,,,,,,,,,
,,,,,,,,,,,,,,,,,2,2022-02-14_11h57.42.695,Initiation_Initiation,2020.1.3,MacIntel,Chrome,"Mozilla/5.0 (Macintosh; Intel Mac OS X 10_15_7) AppleWebKit/537.36 (KHTML, like Gecko) Chrome/98.0.4758.80 Safari/537.36",60,,,,,,,,,,,,,,,,,,,,,,,,,,,,,,,,,0,0,0,Hand,h,RT,0,0,13,1,0,1,99,1,h,0.3385,0,1,h,1,0.3385,13,0,13,0,1,,,,,,,,,,,,,,,,,,,,,,,,,,,,,,,,,,,,,,,,,,,,,,,,,,,,,,,,,,,,,,,,,,,,,,,,,,,,,,,,,,,
,,,,,,,,,,,,,,,,,2,2022-02-14_11h57.42.695,Initiation_Initiation,2020.1.3,MacIntel,Chrome,"Mozilla/5.0 (Macintosh; Intel Mac OS X 10_15_7) AppleWebKit/537.36 (KHTML, like Gecko) Chrome/98.0.4758.80 Safari/537.36",60,,,,,,,,,,,,,,,,,,,,,,,,,,,,,,,,,0,0,0,Hand,h,RT,0,0,14,1,0,1,99,1,h,0.3882,0,1,h,1,0.3882,14,0,14,0,1,,,,,,,,,,,,,,,,,,,,,,,,,,,,,,,,,,,,,,,,,,,,,,,,,,,,,,,,,,,,,,,,,,,,,,,,,,,,,,,,,,,
,,,,,,,,,,,,,,,,,2,2022-02-14_11h57.42.695,Initiation_Initiation,2020.1.3,MacIntel,Chrome,"Mozilla/5.0 (Macintosh; Intel Mac OS X 10_15_7) AppleWebKit/537.36 (KHTML, like Gecko) Chrome/98.0.4758.80 Safari/537.36",60,,,,,,,,,,,,,,,,,,,,,,,,,,,,,,,,,1,1,1,Hand,u,RT,0,0,15,1,0,1,99,1,u,0.3459,1,1,u,1,0.3459,15,0,15,0,1,,,,,,,,,,,,,,,,,,,,,,,,,,,,,,,,,,,,,,,,,,,,,,,,,,,,,,,,,,,,,,,,,,,,,,,,,,,,,,,,,,,
,,,,,,,,,,,,,,,,,2,2022-02-14_11h57.42.695,Initiation_Initiation,2020.1.3,MacIntel,Chrome,"Mozilla/5.0 (Macintosh; Intel Mac OS X 10_15_7) AppleWebKit/537.36 (KHTML, like Gecko) Chrome/98.0.4758.80 Safari/537.36",60,,,,,,,,,,,,,,,,,,,,,,,,,,,,,,,,,1,1,1,Hand,u,RT,0,0,16,1,0,1,99,1,u,0.4273,1,1,u,1,0.4273,16,0,16,0,1,,,,,,,,,,,,,,,,,,,,,,,,,,,,,,,,,,,,,,,,,,,,,,,,,,,,,,,,,,,,,,,,,,,,,,,,,,,,,,,,,,,
,,,,,,,,,,,,,,,,,2,2022-02-14_11h57.42.695,Initiation_Initiation,2020.1.3,MacIntel,Chrome,"Mozilla/5.0 (Macintosh; Intel Mac OS X 10_15_7) AppleWebKit/537.36 (KHTML, like Gecko) Chrome/98.0.4758.80 Safari/537.36",60,,,,,,,,,,,,,,,,,,,,,,,,,,,,,,,,,3,3,3,Hand,l,RT,0,0,17,1,0,1,99,1,l,0.5455,3,1,l,1,0.5455,17,0,17,0,1,,,,,,,,,,,,,,,,,,,,,,,,,,,,,,,,,,,,,,,,,,,,,,,,,,,,,,,,,,,,,,,,,,,,,,,,,,,,,,,,,,,
,,,,,,,,,,,,,,,,,2,2022-02-14_11h57.42.695,Initiation_Initiation,2020.1.3,MacIntel,Chrome,"Mozilla/5.0 (Macintosh; Intel Mac OS X 10_15_7) AppleWebKit/537.36 (KHTML, like Gecko) Chrome/98.0.4758.80 Safari/537.36",60,,,,,,,,,,,,,,,,,,,,,,,,,,,,,,,,,1,1,1,Hand,u,RT,0,0,18,1,0,1,99,1,u,0.5058,1,1,u,1,0.5058,18,0,18,0,1,,,,,,,,,,,,,,,,,,,,,,,,,,,,,,,,,,,,,,,,,,,,,,,,,,,,,,,,,,,,,,,,,,,,,,,,,,,,,,,,,,,
,,,,,,,,,,,,,,,,,2,2022-02-14_11h57.42.695,Initiation_Initiation,2020.1.3,MacIntel,Chrome,"Mozilla/5.0 (Macintosh; Intel Mac OS X 10_15_7) AppleWebKit/537.36 (KHTML, like Gecko) Chrome/98.0.4758.80 Safari/537.36",60,,,,,,,,,,,,,,,,,,,,,,,,,,,,,,,,,2,2,2,Hand,i,RT,0,0,19,1,0,1,99,1,i,0.5466,2,1,i,1,0.5466,19,0,19,0,1,,,,,,,,,,,,,,,,,,,,,,,,,,,,,,,,,,,,,,,,,,,,,,,,,,,,,,,,,,,,,,,,,,,,,,,,,,,,,,,,,,,
,,,,,,,,,,,,,,,,,2,2022-02-14_11h57.42.695,Initiation_Initiation,2020.1.3,MacIntel,Chrome,"Mozilla/5.0 (Macintosh; Intel Mac OS X 10_15_7) AppleWebKit/537.36 (KHTML, like Gecko) Chrome/98.0.4758.80 Safari/537.36",60,,,,,,,,,,,,,,,,,,,,,,,,,,,,,,,,,0,0,0,Hand,h,RT,0,0,20,1,0,1,99,1,h,0.4755,0,1,h,1,0.4755,20,0,20,0,1,,,,,,,,,,,,,,,,,,,,,,,,,,,,,,,,,,,,,,,,,,,,,,,,,,,,,,,,,,,,,,,,,,,,,,,,,,,,,,,,,,,
,,,,,,,,,,,,,,,,,2,2022-02-14_11h57.42.695,Initiation_Initiation,2020.1.3,MacIntel,Chrome,"Mozilla/5.0 (Macintosh; Intel Mac OS X 10_15_7) AppleWebKit/537.36 (KHTML, like Gecko) Chrome/98.0.4758.80 Safari/537.36",60,,,,,,,,,,,,,,,,,,,,,,,,,,,,,,,,,3,3,3,Hand,l,RT,0,0,21,1,0,1,99,1,l,2.3293,3,1,l,1,2.3293,21,0,21,0,1,,,,,,,,,,,,,,,,,,,,,,,,,,,,,,,,,,,,,,,,,,,,,,,,,,,,,,,,,,,,,,,,,,,,,,,,,,,,,,,,,,,
,,,,,,,,,,,,,,,,,2,2022-02-14_11h57.42.695,Initiation_Initiation,2020.1.3,MacIntel,Chrome,"Mozilla/5.0 (Macintosh; Intel Mac OS X 10_15_7) AppleWebKit/537.36 (KHTML, like Gecko) Chrome/98.0.4758.80 Safari/537.36",60,,,,,,,,,,,,,,,,,,,,,,,,,,,,,,,,,0,0,0,Hand,h,RT,0,0,22,1,0,1,99,1,h,0.3907,0,1,h,1,0.3907,22,0,22,0,1,,,,,,,,,,,,,,,,,,,,,,,,,,,,,,,,,,,,,,,,,,,,,,,,,,,,,,,,,,,,,,,,,,,,,,,,,,,,,,,,,,,
,,,,,,,,,,,,,,,,,2,2022-02-14_11h57.42.695,Initiation_Initiation,2020.1.3,MacIntel,Chrome,"Mozilla/5.0 (Macintosh; Intel Mac OS X 10_15_7) AppleWebKit/537.36 (KHTML, like Gecko) Chrome/98.0.4758.80 Safari/537.36",60,,,,,,,,,,,,,,,,,,,,,,,,,,,,,,,,,2,2,2,Hand,i,RT,0,0,23,1,0,1,99,1,i,0.4418,2,1,i,1,0.4418,23,0,23,0,1,,,,,,,,,,,,,,,,,,,,,,,,,,,,,,,,,,,,,,,,,,,,,,,,,,,,,,,,,,,,,,,,,,,,,,,,,,,,,,,,,,,
,,,,,,,,,,,,,,,,,2,2022-02-14_11h57.42.695,Initiation_Initiation,2020.1.3,MacIntel,Chrome,"Mozilla/5.0 (Macintosh; Intel Mac OS X 10_15_7) AppleWebKit/537.36 (KHTML, like Gecko) Chrome/98.0.4758.80 Safari/537.36",60,,,,,,,,,,,,,,,,,,,,,,,,,,,,,,,,,0,0,0,Hand,h,RT,0,0,24,1,0,1,99,1,h,0.5078,0,1,h,1,0.5078,24,0,24,0,1,,,,,,,,,,,,,,,,,,,,,,,,,,,,,,,,,,,,,,,,,,,,,,,,,,,,,,,,,,,,,,,,,,,,,,,,,,,,,,,,,,,
,,,,,,,,,,,,,,,,,2,2022-02-14_11h57.42.695,Initiation_Initiation,2020.1.3,MacIntel,Chrome,"Mozilla/5.0 (Macintosh; Intel Mac OS X 10_15_7) AppleWebKit/537.36 (KHTML, like Gecko) Chrome/98.0.4758.80 Safari/537.36",60,,,,,,,,,,,,,,,,,,,,,,,,,,,,,,,,,1,1,1,Hand,u,RT,0,0,25,1,0,1,99,1,u,0.4259,1,1,u,1,0.4259,25,0,25,0,1,,,,,,,,,,,,,,,,,,,,,,,,,,,,,,,,,,,,,,,,,,,,,,,,,,,,,,,,,,,,,,,,,,,,,,,,,,,,,,,,,,,
,,,,,,,,,,,,,,,,,2,2022-02-14_11h57.42.695,Initiation_Initiation,2020.1.3,MacIntel,Chrome,"Mozilla/5.0 (Macintosh; Intel Mac OS X 10_15_7) AppleWebKit/537.36 (KHTML, like Gecko) Chrome/98.0.4758.80 Safari/537.36",60,,,,,,,,,,,,,,,,,,,,,,,,,,,,,,,,,2,2,2,Hand,i,RT,0,0,26,1,0,1,99,1,i,0.3721,2,1,i,1,0.3721,26,0,26,0,1,,,,,,,,,,,,,,,,,,,,,,,,,,,,,,,,,,,,,,,,,,,,,,,,,,,,,,,,,,,,,,,,,,,,,,,,,,,,,,,,,,,
,,,,,,,,,,,,,,,,,2,2022-02-14_11h57.42.695,Initiation_Initiation,2020.1.3,MacIntel,Chrome,"Mozilla/5.0 (Macintosh; Intel Mac OS X 10_15_7) AppleWebKit/537.36 (KHTML, like Gecko) Chrome/98.0.4758.80 Safari/537.36",60,,,,,,,,,,,,,,,,,,,,,,,,,,,,,,,,,3,3,3,Hand,l,RT,0,0,27,1,0,1,99,1,l,0.3549,3,1,l,1,0.3549,27,0,27,0,1,,,,,,,,,,,,,,,,,,,,,,,,,,,,,,,,,,,,,,,,,,,,,,,,,,,,,,,,,,,,,,,,,,,,,,,,,,,,,,,,,,,
,,,,,,,,,,,,,,,,,2,2022-02-14_11h57.42.695,Initiation_Initiation,2020.1.3,MacIntel,Chrome,"Mozilla/5.0 (Macintosh; Intel Mac OS X 10_15_7) AppleWebKit/537.36 (KHTML, like Gecko) Chrome/98.0.4758.80 Safari/537.36",60,,,,,,,,,,,,,,,,,,,,,,,,,,,,,,,,,2,2,2,Hand,i,RT,0,0,28,1,0,1,99,1,i,0.6092,2,1,i,1,0.6092,28,0,28,0,1,,,,,,,,,,,,,,,,,,,,,,,,,,,,,,,,,,,,,,,,,,,,,,,,,,,,,,,,,,,,,,,,,,,,,,,,,,,,,,,,,,,
,,,,,,,,,,,,,,,,,2,2022-02-14_11h57.42.695,Initiation_Initiation,2020.1.3,MacIntel,Chrome,"Mozilla/5.0 (Macintosh; Intel Mac OS X 10_15_7) AppleWebKit/537.36 (KHTML, like Gecko) Chrome/98.0.4758.80 Safari/537.36",60,,,,,,,,,,,,,,,,,,,,,,,,,,,,,,,,,1,1,1,Hand,u,RT,0,0,29,1,0,1,99,1,u,0.3637,1,1,u,1,0.3637,29,0,29,0,1,,,,,,,,,,,,,,,,,,,,,,,,,,,,,,,,,,,,,,,,,,,,,,,,,,,,,,,,,,,,,,,,,,,,,,,,,,,,,,,,,,,
,,,,,,,,,,,,,,,,,2,2022-02-14_11h57.42.695,Initiation_Initiation,2020.1.3,MacIntel,Chrome,"Mozilla/5.0 (Macintosh; Intel Mac OS X 10_15_7) AppleWebKit/537.36 (KHTML, like Gecko) Chrome/98.0.4758.80 Safari/537.36",60,,,,,,,,,,,,,,,,,,,,,,,,,,,,,,,,,3,3,3,Hand,l,RT,0,0,30,1,0,1,99,1,l,0.5073,3,1,l,1,0.5073,30,0,30,0,1,,,,,,,,,,,,,,,,,,,,,,,,,,,,,,,,,,,,,,,,,,,,,,,,,,,,,,,,,,,,,,,,,,,,,,,,,,,,,,,,,,,
,,,,,,,,,,,,,,,,,2,2022-02-14_11h57.42.695,Initiation_Initiation,2020.1.3,MacIntel,Chrome,"Mozilla/5.0 (Macintosh; Intel Mac OS X 10_15_7) AppleWebKit/537.36 (KHTML, like Gecko) Chrome/98.0.4758.80 Safari/537.36",60,,,,,,,,,,,,,,,,,,,,,,,,,,,,,,,,,0,0,0,Hand,h,RT,0,0,31,1,0,1,99,1,h,0.3625,0,1,h,1,0.3625,31,0,31,0,1,,,,,,,,,,,,,,,,,,,,,,,,,,,,,,,,,,,,,,,,,,,,,,,,,,,,,,,,,,,,,,,,,,,,,,,,,,,,,,,,,,,
,,,,,,,,,,,,,,,,,2,2022-02-14_11h57.42.695,Initiation_Initiation,2020.1.3,MacIntel,Chrome,"Mozilla/5.0 (Macintosh; Intel Mac OS X 10_15_7) AppleWebKit/537.36 (KHTML, like Gecko) Chrome/98.0.4758.80 Safari/537.36",60,,,,,,,,,,,,,,,,,,,,,,,,,,,,,,,,,1,1,1,Hand,u,RT,0,0,32,1,0,1,99,1,u,0.3939,1,1,u,1,0.3939,32,0,32,0,1,,,,,,,,,,,,,,,,,,,,,,,,,,,,,,,,,,,,,,,,,,,,,,,,,,,,,,,,,,,,,,,,,,,,,,,,,,,,,,,,,,,
,,,,,,,,,,,,,,,,,2,2022-02-14_11h57.42.695,Initiation_Initiation,2020.1.3,MacIntel,Chrome,"Mozilla/5.0 (Macintosh; Intel Mac OS X 10_15_7) AppleWebKit/537.36 (KHTML, like Gecko) Chrome/98.0.4758.80 Safari/537.36",60,,,,,,,,,,,,,,,,,,,,,,,,,,,,,,,,,3,3,3,Hand,l,RT,0,0,33,1,0,1,99,1,l,0.3591,3,1,l,1,0.3591,33,0,33,0,1,,,,,,,,,,,,,,,,,,,,,,,,,,,,,,,,,,,,,,,,,,,,,,,,,,,,,,,,,,,,,,,,,,,,,,,,,,,,,,,,,,,
,,,,,,,,,,,,,,,,,2,2022-02-14_11h57.42.695,Initiation_Initiation,2020.1.3,MacIntel,Chrome,"Mozilla/5.0 (Macintosh; Intel Mac OS X 10_15_7) AppleWebKit/537.36 (KHTML, like Gecko) Chrome/98.0.4758.80 Safari/537.36",60,,,,,,,,,,,,,,,,,,,,,,,,,,,,,,,,,3,3,3,Hand,l,RT,0,0,34,1,0,1,99,1,l,0.3913,3,1,l,1,0.3913,34,0,34,0,1,,,,,,,,,,,,,,,,,,,,,,,,,,,,,,,,,,,,,,,,,,,,,,,,,,,,,,,,,,,,,,,,,,,,,,,,,,,,,,,,,,,
,,,,,,,,,,,,,,,,,2,2022-02-14_11h57.42.695,Initiation_Initiation,2020.1.3,MacIntel,Chrome,"Mozilla/5.0 (Macintosh; Intel Mac OS X 10_15_7) AppleWebKit/537.36 (KHTML, like Gecko) Chrome/98.0.4758.80 Safari/537.36",60,,,,,,,,,,,,,,,,,,,,,,,,,,,,,,,,,0,0,0,Hand,h,RT,0,0,35,1,0,1,99,1,h,0.3617,0,1,h,1,0.3617,35,0,35,0,1,,,,,,,,,,,,,,,,,,,,,,,,,,,,,,,,,,,,,,,,,,,,,,,,,,,,,,,,,,,,,,,,,,,,,,,,,,,,,,,,,,,
,,,,,,,,,,,,,,,,,2,2022-02-14_11h57.42.695,Initiation_Initiation,2020.1.3,MacIntel,Chrome,"Mozilla/5.0 (Macintosh; Intel Mac OS X 10_15_7) AppleWebKit/537.36 (KHTML, like Gecko) Chrome/98.0.4758.80 Safari/537.36",60,,,,,,,,,,,,,,,,,,,,,,,,,,,,,,,,,2,2,2,Hand,i,RT,0,0,36,1,0,1,99,1,i,0.3719,2,1,i,1,0.3719,36,0,36,0,1,,,,,,,,,,,,,,,,,,,,,,,,,,,,,,,,,,,,,,,,,,,,,,,,,,,,,,,,,,,,,,,,,,,,,,,,,,,,,,,,,,,
,,,,,,,,,,,,,,,,,2,2022-02-14_11h57.42.695,Initiation_Initiation,2020.1.3,MacIntel,Chrome,"Mozilla/5.0 (Macintosh; Intel Mac OS X 10_15_7) AppleWebKit/537.36 (KHTML, like Gecko) Chrome/98.0.4758.80 Safari/537.36",60,,,,,,,,,,,,,,,,,,,,,,,,,,,,,,,,,2,2,2,Hand,i,RT,0,0,37,1,0,1,99,1,i,0.3755,2,1,i,1,0.3755,37,0,37,0,1,,,,,,,,,,,,,,,,,,,,,,,,,,,,,,,,,,,,,,,,,,,,,,,,,,,,,,,,,,,,,,,,,,,,,,,,,,,,,,,,,,,
,,,,,,,,,,,,,,,,,2,2022-02-14_11h57.42.695,Initiation_Initiation,2020.1.3,MacIntel,Chrome,"Mozilla/5.0 (Macintosh; Intel Mac OS X 10_15_7) AppleWebKit/537.36 (KHTML, like Gecko) Chrome/98.0.4758.80 Safari/537.36",60,,,,,,,,,,,,,,,,,,,,,,,,,,,,,,,,,0,0,0,Hand,h,RT,0,0,38,1,0,1,99,1,h,0.3735,0,1,h,1,0.3735,38,0,38,0,1,,,,,,,,,,,,,,,,,,,,,,,,,,,,,,,,,,,,,,,,,,,,,,,,,,,,,,,,,,,,,,,,,,,,,,,,,,,,,,,,,,,
,,,,,,,,,,,,,,,,,2,2022-02-14_11h57.42.695,Initiation_Initiation,2020.1.3,MacIntel,Chrome,"Mozilla/5.0 (Macintosh; Intel Mac OS X 10_15_7) AppleWebKit/537.36 (KHTML, like Gecko) Chrome/98.0.4758.80 Safari/537.36",60,,,,,,,,,,,,,,,,,,,,,,,,,,,,,,,,,1,1,1,Hand,u,RT,0,0,39,1,0,1,99,1,u,0.3382,1,1,u,1,0.3382,39,0,39,0,1,,,,,,,,,,,,,,,,,,,,,,,,,,,,,,,,,,,,,,,,,,,,,,,,,,,,,,,,,,,,,,,,,,,,,,,,,,,,,,,,,,,
,,,,,,,,,,,,,,,,,2,2022-02-14_11h57.42.695,Initiation_Initiation,2020.1.3,MacIntel,Chrome,"Mozilla/5.0 (Macintosh; Intel Mac OS X 10_15_7) AppleWebKit/537.36 (KHTML, like Gecko) Chrome/98.0.4758.80 Safari/537.36",60,,,,,,,,,,,,,,,,,,,,,,,,,,,,,,,,,0,0,0,Hand,h,RT,0,0,40,1,0,1,99,1,h,0.5788,0,1,h,1,0.5788,40,0,40,0,1,,,,,,,,,,,,,,,,,,,,,,,,,,,,,,,,,,,,,,,,,,,,,,,,,,,,,,,,,,,,,,,,,,,,,,,,,,,,,,,,,,,
,,,,,,,,,,,,,,,,,2,2022-02-14_11h57.42.695,Initiation_Initiation,2020.1.3,MacIntel,Chrome,"Mozilla/5.0 (Macintosh; Intel Mac OS X 10_15_7) AppleWebKit/537.36 (KHTML, like Gecko) Chrome/98.0.4758.80 Safari/537.36",60,,,,,,,,,,,,,,,,,,,,,,,,,,,,,,,,,2,2,2,Hand,i,RT,0,0,41,1,0,1,99,1,i,0.9865,2,1,i,1,0.9865,41,0,41,0,1,,,,,,,,,,,,,,,,,,,,,,,,,,,,,,,,,,,,,,,,,,,,,,,,,,,,,,,,,,,,,,,,,,,,,,,,,,,,,,,,,,,
,,,,,,,,,,,,,,,,,2,2022-02-14_11h57.42.695,Initiation_Initiation,2020.1.3,MacIntel,Chrome,"Mozilla/5.0 (Macintosh; Intel Mac OS X 10_15_7) AppleWebKit/537.36 (KHTML, like Gecko) Chrome/98.0.4758.80 Safari/537.36",60,,,,,,,,,,,,,,,,,,,,,,,,,,,,,,,,,2,2,2,Hand,i,RT,0,0,42,1,0,1,99,1,i,0.439,2,1,i,1,0.439,42,0,42,0,1,,,,,,,,,,,,,,,,,,,,,,,,,,,,,,,,,,,,,,,,,,,,,,,,,,,,,,,,,,,,,,,,,,,,,,,,,,,,,,,,,,,
,,,,,,,,,,,,,,,,,2,2022-02-14_11h57.42.695,Initiation_Initiation,2020.1.3,MacIntel,Chrome,"Mozilla/5.0 (Macintosh; Intel Mac OS X 10_15_7) AppleWebKit/537.36 (KHTML, like Gecko) Chrome/98.0.4758.80 Safari/537.36",60,,,,,,,,,,,,,,,,,,,,,,,,,,,,,,,,,3,3,3,Hand,l,RT,0,0,43,1,0,1,99,1,l,0.4361,3,1,l,1,0.4361,43,0,43,0,1,,,,,,,,,,,,,,,,,,,,,,,,,,,,,,,,,,,,,,,,,,,,,,,,,,,,,,,,,,,,,,,,,,,,,,,,,,,,,,,,,,,
,,,,,,,,,,,,,,,,,2,2022-02-14_11h57.42.695,Initiation_Initiation,2020.1.3,MacIntel,Chrome,"Mozilla/5.0 (Macintosh; Intel Mac OS X 10_15_7) AppleWebKit/537.36 (KHTML, like Gecko) Chrome/98.0.4758.80 Safari/537.36",60,,,,,,,,,,,,,,,,,,,,,,,,,,,,,,,,,1,1,1,Hand,u,RT,0,0,44,1,0,1,99,1,u,0.4217,1,1,u,1,0.4217,44,0,44,0,1,,,,,,,,,,,,,,,,,,,,,,,,,,,,,,,,,,,,,,,,,,,,,,,,,,,,,,,,,,,,,,,,,,,,,,,,,,,,,,,,,,,
,,,,,,,,,,,,,,,,,2,2022-02-14_11h57.42.695,Initiation_Initiation,2020.1.3,MacIntel,Chrome,"Mozilla/5.0 (Macintosh; Intel Mac OS X 10_15_7) AppleWebKit/537.36 (KHTML, like Gecko) Chrome/98.0.4758.80 Safari/537.36",60,,,,,,,,,,,,,,,,,,,,,,,,,,,,,,,,,0,0,0,Hand,h,RT,0,0,45,1,0,1,99,1,h,0.4108,0,1,h,1,0.4108,45,0,45,0,1,,,,,,,,,,,,,,,,,,,,,,,,,,,,,,,,,,,,,,,,,,,,,,,,,,,,,,,,,,,,,,,,,,,,,,,,,,,,,,,,,,,
,,,,,,,,,,,,,,,,,2,2022-02-14_11h57.42.695,Initiation_Initiation,2020.1.3,MacIntel,Chrome,"Mozilla/5.0 (Macintosh; Intel Mac OS X 10_15_7) AppleWebKit/537.36 (KHTML, like Gecko) Chrome/98.0.4758.80 Safari/537.36",60,,,,,,,,,,,,,,,,,,,,,,,,,,,,,,,,,3,3,3,Hand,l,RT,0,0,46,1,0,1,99,1,l,0.4182,3,1,l,1,0.4182,46,0,46,0,1,,,,,,,,,,,,,,,,,,,,,,,,,,,,,,,,,,,,,,,,,,,,,,,,,,,,,,,,,,,,,,,,,,,,,,,,,,,,,,,,,,,
,,,,,,,,,,,,,,,,,2,2022-02-14_11h57.42.695,Initiation_Initiation,2020.1.3,MacIntel,Chrome,"Mozilla/5.0 (Macintosh; Intel Mac OS X 10_15_7) AppleWebKit/537.36 (KHTML, like Gecko) Chrome/98.0.4758.80 Safari/537.36",60,,,,,,,,,,,,,,,,,,,,,,,,,,,,,,,,,1,1,1,Hand,u,RT,0,0,47,1,0,1,99,1,u,0.6217,1,1,u,1,0.6217,47,0,47,0,1,,,,,,,,,,,,,,,,,,,,,,,,,,,,,,,,,,,,,,,,,,,,,,,,,,,,,,,,,,,,,,,,,,,,,,,,,,,,,,,,,,,
,,,,,,,,,,,,,,,,,2,2022-02-14_11h57.42.695,Initiation_Initiation,2020.1.3,MacIntel,Chrome,"Mozilla/5.0 (Macintosh; Intel Mac OS X 10_15_7) AppleWebKit/537.36 (KHTML, like Gecko) Chrome/98.0.4758.80 Safari/537.36",60,,,,,,,,,,,,,,,,,,,,,,,,,,,,,,,,,0,0,0,Hand,h,RT,0,0,48,1,0,1,99,1,h,0.4268,0,1,h,1,0.4268,48,0,48,0,1,,,,,,,,,,,,,,,,,,,,,,,,,,,,,,,,,,,,,,,,,,,,,,,,,,,,,,,,,,,,,,,,,,,,,,,,,,,,,,,,,,,
,,,,,,,,,,,,,,,,,2,2022-02-14_11h57.42.695,Initiation_Initiation,2020.1.3,MacIntel,Chrome,"Mozilla/5.0 (Macintosh; Intel Mac OS X 10_15_7) AppleWebKit/537.36 (KHTML, like Gecko) Chrome/98.0.4758.80 Safari/537.36",60,,,,,,,,,,,,,,,,,,,,,,,,,,,,,,,,,1,1,1,Hand,u,RT,0,0,49,1,0,1,99,1,u,0.4136,1,1,u,1,0.4136,49,0,49,0,1,,,,,,,,,,,,,,,,,,,,,,,,,,,,,,,,,,,,,,,,,,,,,,,,,,,,,,,,,,,,,,,,,,,,,,,,,,,,,,,,,,,
,,,,,,,,,,,,,,,,,2,2022-02-14_11h57.42.695,Initiation_Initiation,2020.1.3,MacIntel,Chrome,"Mozilla/5.0 (Macintosh; Intel Mac OS X 10_15_7) AppleWebKit/537.36 (KHTML, like Gecko) Chrome/98.0.4758.80 Safari/537.36",60,,,,,,,,,,,,,,,,,,,,,,,,,,,,,,,,,2,2,2,Hand,i,RT,0,0,50,1,0,1,99,1,i,0.4891,2,1,i,1,0.4891,50,0,50,0,1,,,,,,,,,,,,,,,,,,,,,,,,,,,,,,,,,,,,,,,,,,,,,,,,,,,,,,,,,,,,,,,,,,,,,,,,,,,,,,,,,,,
,,,,,,,,,,,,,,,,,2,2022-02-14_11h57.42.695,Initiation_Initiation,2020.1.3,MacIntel,Chrome,"Mozilla/5.0 (Macintosh; Intel Mac OS X 10_15_7) AppleWebKit/537.36 (KHTML, like Gecko) Chrome/98.0.4758.80 Safari/537.36",60,,,,,,,,,,,,,,,,,,,,,,,,,,,,,,,,,3,3,3,Hand,l,RT,0,0,51,1,0,1,99,1,l,0.338,3,1,l,1,0.338,51,0,51,0,1,,,,,,,,,,,,,,,,,,,,,,,,,,,,,,,,,,,,,,,,,,,,,,,,,,,,,,,,,,,,,,,,,,,,,,,,,,,,,,,,,,,
,,,,,,,,,,,,,,,,,2,2022-02-14_11h57.42.695,Initiation_Initiation,2020.1.3,MacIntel,Chrome,"Mozilla/5.0 (Macintosh; Intel Mac OS X 10_15_7) AppleWebKit/537.36 (KHTML, like Gecko) Chrome/98.0.4758.80 Safari/537.36",60,,,,,,,,,,,,,,,,,,,,,,,,,,,,,,,,,1,1,1,Hand,u,RT,0,0,52,1,0,1,99,1,u,0.8384,1,1,u,1,0.8384,52,0,52,0,1,,,,,,,,,,,,,,,,,,,,,,,,,,,,,,,,,,,,,,,,,,,,,,,,,,,,,,,,,,,,,,,,,,,,,,,,,,,,,,,,,,,
,,,,,,,,,,,,,,,,,2,2022-02-14_11h57.42.695,Initiation_Initiation,2020.1.3,MacIntel,Chrome,"Mozilla/5.0 (Macintosh; Intel Mac OS X 10_15_7) AppleWebKit/537.36 (KHTML, like Gecko) Chrome/98.0.4758.80 Safari/537.36",60,,,,,,,,,,,,,,,,,,,,,,,,,,,,,,,,,0,0,0,Hand,h,RT,0,0,53,1,0,1,99,1,h,0.36,0,1,h,1,0.36,53,0,53,0,1,,,,,,,,,,,,,,,,,,,,,,,,,,,,,,,,,,,,,,,,,,,,,,,,,,,,,,,,,,,,,,,,,,,,,,,,,,,,,,,,,,,
,,,,,,,,,,,,,,,,,2,2022-02-14_11h57.42.695,Initiation_Initiation,2020.1.3,MacIntel,Chrome,"Mozilla/5.0 (Macintosh; Intel Mac OS X 10_15_7) AppleWebKit/537.36 (KHTML, like Gecko) Chrome/98.0.4758.80 Safari/537.36",60,,,,,,,,,,,,,,,,,,,,,,,,,,,,,,,,,3,3,3,Hand,l,RT,0,0,54,1,0,1,99,1,l,0.4371,3,1,l,1,0.4371,54,0,54,0,1,,,,,,,,,,,,,,,,,,,,,,,,,,,,,,,,,,,,,,,,,,,,,,,,,,,,,,,,,,,,,,,,,,,,,,,,,,,,,,,,,,,
,,,,,,,,,,,,,,,,,2,2022-02-14_11h57.42.695,Initiation_Initiation,2020.1.3,MacIntel,Chrome,"Mozilla/5.0 (Macintosh; Intel Mac OS X 10_15_7) AppleWebKit/537.36 (KHTML, like Gecko) Chrome/98.0.4758.80 Safari/537.36",60,,,,,,,,,,,,,,,,,,,,,,,,,,,,,,,,,2,2,2,Hand,i,RT,0,0,55,1,0,1,99,1,i,0.4394,2,1,i,1,0.4394,55,0,55,0,1,,,,,,,,,,,,,,,,,,,,,,,,,,,,,,,,,,,,,,,,,,,,,,,,,,,,,,,,,,,,,,,,,,,,,,,,,,,,,,,,,,,
,,,,,,,,,,,,,,,,,2,2022-02-14_11h57.42.695,Initiation_Initiation,2020.1.3,MacIntel,Chrome,"Mozilla/5.0 (Macintosh; Intel Mac OS X 10_15_7) AppleWebKit/537.36 (KHTML, like Gecko) Chrome/98.0.4758.80 Safari/537.36",60,,,,,,,,,,,,,,,,,,,,,,,,,,,,,,,,,2,2,2,Hand,i,RT,0,0,56,1,0,1,99,1,l,0.3921,3,0,l,0,0.3921,56,0,56,0,1,,,,,,,,,,,,,,,,,,,,,,,,,,,,,,,,,,,,,,,,,,,,,,,,,,,,,,,,,,,,,,,,,,,,,,,,,,,,,,,,,,,
,,,,,,,,,,,,,,,,,2,2022-02-14_11h57.42.695,Initiation_Initiation,2020.1.3,MacIntel,Chrome,"Mozilla/5.0 (Macintosh; Intel Mac OS X 10_15_7) AppleWebKit/537.36 (KHTML, like Gecko) Chrome/98.0.4758.80 Safari/537.36",60,,,,,,,,,,,,,,,,,,,,,,,,,,,,,,,,,0,0,0,Hand,h,RT,0,0,57,1,0,1,99,1,h,0.4608,0,1,h,1,0.4608,57,0,57,0,1,,,,,,,,,,,,,,,,,,,,,,,,,,,,,,,,,,,,,,,,,,,,,,,,,,,,,,,,,,,,,,,,,,,,,,,,,,,,,,,,,,,
,,,,,,,,,,,,,,,,,2,2022-02-14_11h57.42.695,Initiation_Initiation,2020.1.3,MacIntel,Chrome,"Mozilla/5.0 (Macintosh; Intel Mac OS X 10_15_7) AppleWebKit/537.36 (KHTML, like Gecko) Chrome/98.0.4758.80 Safari/537.36",60,,,,,,,,,,,,,,,,,,,,,,,,,,,,,,,,,3,3,3,Hand,l,RT,0,0,58,1,0,1,99,1,l,0.4254,3,1,l,1,0.4254,58,0,58,0,1,,,,,,,,,,,,,,,,,,,,,,,,,,,,,,,,,,,,,,,,,,,,,,,,,,,,,,,,,,,,,,,,,,,,,,,,,,,,,,,,,,,
,,,,,,,,,,,,,,,,,2,2022-02-14_11h57.42.695,Initiation_Initiation,2020.1.3,MacIntel,Chrome,"Mozilla/5.0 (Macintosh; Intel Mac OS X 10_15_7) AppleWebKit/537.36 (KHTML, like Gecko) Chrome/98.0.4758.80 Safari/537.36",60,,,,,,,,,,,,,,,,,,,,,,,,,,,,,,,,,3,3,3,Hand,l,RT,0,0,59,1,0,1,99,1,l,0.4702,3,1,l,1,0.4702,59,0,59,0,1,,,,,,,,,,,,,,,,,,,,,,,,,,,,,,,,,,,,,,,,,,,,,,,,,,,,,,,,,,,,,,,,,,,,,,,,,,,,,,,,,,,
,,,,,,,,,,,,,,,,,2,2022-02-14_11h57.42.695,Initiation_Initiation,2020.1.3,MacIntel,Chrome,"Mozilla/5.0 (Macintosh; Intel Mac OS X 10_15_7) AppleWebKit/537.36 (KHTML, like Gecko) Chrome/98.0.4758.80 Safari/537.36",60,,,,,,,,,,,,,,,,,,,,,,,,,,,,,,,,,0,0,0,Hand,h,RT,0,0,60,1,0,1,99,1,h,0.4963,0,1,h,1,0.4963,60,0,60,0,1,,,,,,,,,,,,,,,,,,,,,,,,,,,,,,,,,,,,,,,,,,,,,,,,,,,,,,,,,,,,,,,,,,,,,,,,,,,,,,,,,,,
,,,,,,,,,,,,,,,,,2,2022-02-14_11h57.42.695,Initiation_Initiation,2020.1.3,MacIntel,Chrome,"Mozilla/5.0 (Macintosh; Intel Mac OS X 10_15_7) AppleWebKit/537.36 (KHTML, like Gecko) Chrome/98.0.4758.80 Safari/537.36",60,,,,,,,,,,,,,,,,,,,,,,,,,,,,,,,,,2,2,2,Hand,i,RT,0,0,61,1,0,1,99,1,i,0.4205,2,1,i,1,0.4205,61,0,61,0,1,,,,,,,,,,,,,,,,,,,,,,,,,,,,,,,,,,,,,,,,,,,,,,,,,,,,,,,,,,,,,,,,,,,,,,,,,,,,,,,,,,,
,,,,,,,,,,,,,,,,,2,2022-02-14_11h57.42.695,Initiation_Initiation,2020.1.3,MacIntel,Chrome,"Mozilla/5.0 (Macintosh; Intel Mac OS X 10_15_7) AppleWebKit/537.36 (KHTML, like Gecko) Chrome/98.0.4758.80 Safari/537.36",60,,,,,,,,,,,,,,,,,,,,,,,,,,,,,,,,,1,1,1,Hand,u,RT,0,0,62,1,0,1,99,1,u,0.3385,1,1,u,1,0.3385,62,0,62,0,1,,,,,,,,,,,,,,,,,,,,,,,,,,,,,,,,,,,,,,,,,,,,,,,,,,,,,,,,,,,,,,,,,,,,,,,,,,,,,,,,,,,
,,,,,,,,,,,,,,,,,2,2022-02-14_11h57.42.695,Initiation_Initiation,2020.1.3,MacIntel,Chrome,"Mozilla/5.0 (Macintosh; Intel Mac OS X 10_15_7) AppleWebKit/537.36 (KHTML, like Gecko) Chrome/98.0.4758.80 Safari/537.36",60,,,,,,,,,,,,,,,,,,,,,,,,,,,,,,,,,1,1,1,Hand,u,RT,0,0,63,1,0,1,99,1,u,0.3618,1,1,u,1,0.3618,63,0,63,0,1,,,,,,,,,,,,,,,,,,,,,,,,,,,,,,,,,,,,,,,,,,,,,,,,,,,,,,,,,,,,,,,,,,,,,,,,,,,,,,,,,,,
,,,,,,,,,,,,,,,,,2,2022-02-14_11h57.42.695,Initiation_Initiation,2020.1.3,MacIntel,Chrome,"Mozilla/5.0 (Macintosh; Intel Mac OS X 10_15_7) AppleWebKit/537.36 (KHTML, like Gecko) Chrome/98.0.4758.80 Safari/537.36",60,,,,,,,,,,,,,,,,,,,,,,,,,,,,,,,,,2,2,2,Hand,i,RT,0,0,64,1,0,1,99,1,i,0.4117,2,1,i,1,0.4117,64,0,64,0,1,,,,,,,,,,,,,,,,,,,,,,,,,,,,,,,,,,,,,,,,,,,,,,,,,,,,,,,,,,,,,,,,,,,,,,,,,,,,,,,,,,,
,,,,,,,,,,,,,,,,,2,2022-02-14_11h57.42.695,Initiation_Initiation,2020.1.3,MacIntel,Chrome,"Mozilla/5.0 (Macintosh; Intel Mac OS X 10_15_7) AppleWebKit/537.36 (KHTML, like Gecko) Chrome/98.0.4758.80 Safari/537.36",60,,,,,,,,,,,,,,,,,,,,,,,,,,,,,,,,,1,1,1,Hand,u,RT,0,0,65,1,0,1,99,1,h,0.4273,0,0,h,0,0.4273,65,0,65,0,1,,,,,,,,,,,,,,,,,,,,,,,,,,,,,,,,,,,,,,,,,,,,,,,,,,,,,,,,,,,,,,,,,,,,,,,,,,,,,,,,,,,
,,,,,,,,,,,,,,,,,2,2022-02-14_11h57.42.695,Initiation_Initiation,2020.1.3,MacIntel,Chrome,"Mozilla/5.0 (Macintosh; Intel Mac OS X 10_15_7) AppleWebKit/537.36 (KHTML, like Gecko) Chrome/98.0.4758.80 Safari/537.36",60,,,,,,,,,,,,,,,,,,,,,,,,,,,,,,,,,1,1,1,Hand,u,RT,0,0,66,1,0,1,99,1,u,0.3782,1,1,u,1,0.3782,66,0,66,0,1,,,,,,,,,,,,,,,,,,,,,,,,,,,,,,,,,,,,,,,,,,,,,,,,,,,,,,,,,,,,,,,,,,,,,,,,,,,,,,,,,,,
,,,,,,,,,,,,,,,,,2,2022-02-14_11h57.42.695,Initiation_Initiation,2020.1.3,MacIntel,Chrome,"Mozilla/5.0 (Macintosh; Intel Mac OS X 10_15_7) AppleWebKit/537.36 (KHTML, like Gecko) Chrome/98.0.4758.80 Safari/537.36",60,,,,,,,,,,,,,,,,,,,,,,,,,,,,,,,,,3,3,3,Hand,l,RT,0,0,67,1,0,1,99,1,l,0.4368,3,1,l,1,0.4368,67,0,67,0,1,,,,,,,,,,,,,,,,,,,,,,,,,,,,,,,,,,,,,,,,,,,,,,,,,,,,,,,,,,,,,,,,,,,,,,,,,,,,,,,,,,,
,,,,,,,,,,,,,,,,,2,2022-02-14_11h57.42.695,Initiation_Initiation,2020.1.3,MacIntel,Chrome,"Mozilla/5.0 (Macintosh; Intel Mac OS X 10_15_7) AppleWebKit/537.36 (KHTML, like Gecko) Chrome/98.0.4758.80 Safari/537.36",60,,,,,,,,,,,,,,,,,,,,,,,,,,,,,,,,,0,0,0,Hand,h,RT,0,0,68,1,0,1,99,1,h,0.4498,0,1,h,1,0.4498,68,0,68,0,1,,,,,,,,,,,,,,,,,,,,,,,,,,,,,,,,,,,,,,,,,,,,,,,,,,,,,,,,,,,,,,,,,,,,,,,,,,,,,,,,,,,
,,,,,,,,,,,,,,,,,2,2022-02-14_11h57.42.695,Initiation_Initiation,2020.1.3,MacIntel,Chrome,"Mozilla/5.0 (Macintosh; Intel Mac OS X 10_15_7) AppleWebKit/537.36 (KHTML, like Gecko) Chrome/98.0.4758.80 Safari/537.36",60,,,,,,,,,,,,,,,,,,,,,,,,,,,,,,,,,2,2,2,Hand,i,RT,0,0,69,1,0,1,99,1,i,0.4762,2,1,i,1,0.4762,69,0,69,0,1,,,,,,,,,,,,,,,,,,,,,,,,,,,,,,,,,,,,,,,,,,,,,,,,,,,,,,,,,,,,,,,,,,,,,,,,,,,,,,,,,,,
,,,,,,,,,,,,,,,,,2,2022-02-14_11h57.42.695,Initiation_Initiation,2020.1.3,MacIntel,Chrome,"Mozilla/5.0 (Macintosh; Intel Mac OS X 10_15_7) AppleWebKit/537.36 (KHTML, like Gecko) Chrome/98.0.4758.80 Safari/537.36",60,,,,,,,,,,,,,,,,,,,,,,,,,,,,,,,,,0,0,0,Hand,h,RT,0,0,70,1,0,1,99,1,h,0.4111,0,1,h,1,0.4111,70,0,70,0,1,,,,,,,,,,,,,,,,,,,,,,,,,,,,,,,,,,,,,,,,,,,,,,,,,,,,,,,,,,,,,,,,,,,,,,,,,,,,,,,,,,,
,,,,,,,,,,,,,,,,,2,2022-02-14_11h57.42.695,Initiation_Initiation,2020.1.3,MacIntel,Chrome,"Mozilla/5.0 (Macintosh; Intel Mac OS X 10_15_7) AppleWebKit/537.36 (KHTML, like Gecko) Chrome/98.0.4758.80 Safari/537.36",60,,,,,,,,,,,,,,,,,,,,,,,,,,,,,,,,,3,3,3,Hand,l,RT,0,0,71,1,0,1,99,1,l,0.5313,3,1,l,1,0.5313,71,0,71,0,1,,,,,,,,,,,,,,,,,,,,,,,,,,,,,,,,,,,,,,,,,,,,,,,,,,,,,,,,,,,,,,,,,,,,,,,,,,,,,,,,,,,
,,,,,,,,,,,,,,,,,2,2022-02-14_11h57.42.695,Initiation_Initiation,2020.1.3,MacIntel,Chrome,"Mozilla/5.0 (Macintosh; Intel Mac OS X 10_15_7) AppleWebKit/537.36 (KHTML, like Gecko) Chrome/98.0.4758.80 Safari/537.36",60,,,,,,,,,,,,,,,,,,,,,,,,,,,,,,,,,3,3,3,Hand,l,RT,0,0,72,1,0,1,99,1,l,0.4482,3,1,l,1,0.4482,72,0,72,0,1,,,,,,,,,,,,,,,,,,,,,,,,,,,,,,,,,,,,,,,,,,,,,,,,,,,,,,,,,,,,,,,,,,,,,,,,,,,,,,,,,,,
,,,,,,,,,,,,,,,,,2,2022-02-14_11h57.42.695,Initiation_Initiation,2020.1.3,MacIntel,Chrome,"Mozilla/5.0 (Macintosh; Intel Mac OS X 10_15_7) AppleWebKit/537.36 (KHTML, like Gecko) Chrome/98.0.4758.80 Safari/537.36",60,,,,,,,,,,,,,,,,,,,,,,,,,,,,,,,,,2,2,2,Hand,i,RT,0,0,73,1,0,1,99,1,i,0.613,2,1,i,1,0.613,73,0,73,0,1,,,,,,,,,,,,,,,,,,,,,,,,,,,,,,,,,,,,,,,,,,,,,,,,,,,,,,,,,,,,,,,,,,,,,,,,,,,,,,,,,,,
,,,,,,,,,,,,,,,,,2,2022-02-14_11h57.42.695,Initiation_Initiation,2020.1.3,MacIntel,Chrome,"Mozilla/5.0 (Macintosh; Intel Mac OS X 10_15_7) AppleWebKit/537.36 (KHTML, like Gecko) Chrome/98.0.4758.80 Safari/537.36",60,,,,,,,,,,,,,,,,,,,,,,,,,,,,,,,,,1,1,1,Hand,u,RT,0,0,74,1,0,1,99,1,u,0.4911,1,1,u,1,0.4911,74,0,74,0,1,,,,,,,,,,,,,,,,,,,,,,,,,,,,,,,,,,,,,,,,,,,,,,,,,,,,,,,,,,,,,,,,,,,,,,,,,,,,,,,,,,,
,,,,,,,,,,,,,,,,,2,2022-02-14_11h57.42.695,Initiation_Initiation,2020.1.3,MacIntel,Chrome,"Mozilla/5.0 (Macintosh; Intel Mac OS X 10_15_7) AppleWebKit/537.36 (KHTML, like Gecko) Chrome/98.0.4758.80 Safari/537.36",60,,,,,,,,,,,,,,,,,,,,,,,,,,,,,,,,,3,3,3,Hand,l,RT,0,0,75,1,0,1,99,1,l,0.5916,3,1,l,1,0.5916,75,0,75,0,1,,,,,,,,,,,,,,,,,,,,,,,,,,,,,,,,,,,,,,,,,,,,,,,,,,,,,,,,,,,,,,,,,,,,,,,,,,,,,,,,,,,
,,,,,,,,,,,,,,,,,2,2022-02-14_11h57.42.695,Initiation_Initiation,2020.1.3,MacIntel,Chrome,"Mozilla/5.0 (Macintosh; Intel Mac OS X 10_15_7) AppleWebKit/537.36 (KHTML, like Gecko) Chrome/98.0.4758.80 Safari/537.36",60,,,,,,,,,,,,,,,,,,,,,,,,,,,,,,,,,0,0,0,Hand,h,RT,0,0,76,1,0,1,99,1,h,0.4223,0,1,h,1,0.4223,76,0,76,0,1,,,,,,,,,,,,,,,,,,,,,,,,,,,,,,,,,,,,,,,,,,,,,,,,,,,,,,,,,,,,,,,,,,,,,,,,,,,,,,,,,,,
,,,,,,,,,,,,,,,,,2,2022-02-14_11h57.42.695,Initiation_Initiation,2020.1.3,MacIntel,Chrome,"Mozilla/5.0 (Macintosh; Intel Mac OS X 10_15_7) AppleWebKit/537.36 (KHTML, like Gecko) Chrome/98.0.4758.80 Safari/537.36",60,,,,,,,,,,,,,,,,,,,,,,,,,,,,,,,,,0,0,0,Hand,h,RT,0,0,77,1,0,1,99,1,h,0.391,0,1,h,1,0.391,77,0,77,0,1,,,,,,,,,,,,,,,,,,,,,,,,,,,,,,,,,,,,,,,,,,,,,,,,,,,,,,,,,,,,,,,,,,,,,,,,,,,,,,,,,,,
,,,,,,,,,,,,,,,,,2,2022-02-14_11h57.42.695,Initiation_Initiation,2020.1.3,MacIntel,Chrome,"Mozilla/5.0 (Macintosh; Intel Mac OS X 10_15_7) AppleWebKit/537.36 (KHTML, like Gecko) Chrome/98.0.4758.80 Safari/537.36",60,,,,,,,,,,,,,,,,,,,,,,,,,,,,,,,,,2,2,2,Hand,i,RT,0,0,78,1,0,1,99,1,i,0.4898,2,1,i,1,0.4898,78,0,78,0,1,,,,,,,,,,,,,,,,,,,,,,,,,,,,,,,,,,,,,,,,,,,,,,,,,,,,,,,,,,,,,,,,,,,,,,,,,,,,,,,,,,,
,,,,,,,,,,,,,,,,,2,2022-02-14_11h57.42.695,Initiation_Initiation,2020.1.3,MacIntel,Chrome,"Mozilla/5.0 (Macintosh; Intel Mac OS X 10_15_7) AppleWebKit/537.36 (KHTML, like Gecko) Chrome/98.0.4758.80 Safari/537.36",60,,,,,,,,,,,,,,,,,,,,,,,,,,,,,,,,,1,1,1,Hand,u,RT,0,0,79,1,0,1,99,1,u,0.3869,1,1,u,1,0.3869,79,0,79,0,1,,,,,,,,,,,,,,,,,,,,,,,,,,,,,,,,,,,,,,,,,,,,,,,,,,,,,,,,,,,,,,,,,,,,,,,,,,,,,,,,,,,
,,,,,,,,,,,,,,,,,2,2022-02-14_11h57.42.695,Initiation_Initiation,2020.1.3,MacIntel,Chrome,"Mozilla/5.0 (Macintosh; Intel Mac OS X 10_15_7) AppleWebKit/537.36 (KHTML, like Gecko) Chrome/98.0.4758.80 Safari/537.36",60,,,,,,,,,,,,,,,,,,,,,,,,,,,,,,,,,0,0,0,Hand,h,RT,0,0,80,1,0,1,99,1,h,0.4345,0,1,h,1,0.4345,80,0,80,0,1,,,,,,,,,,,,,,,,,,,,,,,,,,,,,,,,,,,,,,,,,,,,,,,,,,,,,,,,,,,,,,,,,,,,,,,,,,,,,,,,,,,
,,,,,,,,,,,,,,,,,2,2022-02-14_11h57.42.695,Initiation_Initiation,2020.1.3,MacIntel,Chrome,"Mozilla/5.0 (Macintosh; Intel Mac OS X 10_15_7) AppleWebKit/537.36 (KHTML, like Gecko) Chrome/98.0.4758.80 Safari/537.36",60,,,,,,,,,,,,,,,,,,,,,,,,,,,,,,,,,1,1,1,Hand,u,RT,0,0,81,1,0,1,99,1,u,0.4959,1,1,u,1,0.4959,81,0,81,0,1,,,,,,,,,,,,,,,,,,,,,,,,,,,,,,,,,,,,,,,,,,,,,,,,,,,,,,,,,,,,,,,,,,,,,,,,,,,,,,,,,,,
,,,,,,,,,,,,,,,,,2,2022-02-14_11h57.42.695,Initiation_Initiation,2020.1.3,MacIntel,Chrome,"Mozilla/5.0 (Macintosh; Intel Mac OS X 10_15_7) AppleWebKit/537.36 (KHTML, like Gecko) Chrome/98.0.4758.80 Safari/537.36",60,,,,,,,,,,,,,,,,,,,,,,,,,,,,,,,,,1,1,1,Hand,u,RT,0,0,82,1,0,1,99,1,u,0.4171,1,1,u,1,0.4171,82,0,82,0,1,,,,,,,,,,,,,,,,,,,,,,,,,,,,,,,,,,,,,,,,,,,,,,,,,,,,,,,,,,,,,,,,,,,,,,,,,,,,,,,,,,,
,,,,,,,,,,,,,,,,,2,2022-02-14_11h57.42.695,Initiation_Initiation,2020.1.3,MacIntel,Chrome,"Mozilla/5.0 (Macintosh; Intel Mac OS X 10_15_7) AppleWebKit/537.36 (KHTML, like Gecko) Chrome/98.0.4758.80 Safari/537.36",60,,,,,,,,,,,,,,,,,,,,,,,,,,,,,,,,,3,3,3,Hand,l,RT,0,0,83,1,0,1,99,1,l,0.3983,3,1,l,1,0.3983,83,0,83,0,1,,,,,,,,,,,,,,,,,,,,,,,,,,,,,,,,,,,,,,,,,,,,,,,,,,,,,,,,,,,,,,,,,,,,,,,,,,,,,,,,,,,
,,,,,,,,,,,,,,,,,2,2022-02-14_11h57.42.695,Initiation_Initiation,2020.1.3,MacIntel,Chrome,"Mozilla/5.0 (Macintosh; Intel Mac OS X 10_15_7) AppleWebKit/537.36 (KHTML, like Gecko) Chrome/98.0.4758.80 Safari/537.36",60,,,,,,,,,,,,,,,,,,,,,,,,,,,,,,,,,0,0,0,Hand,h,RT,0,0,84,1,0,1,99,1,h,0.4225,0,1,h,1,0.4225,84,0,84,0,1,,,,,,,,,,,,,,,,,,,,,,,,,,,,,,,,,,,,,,,,,,,,,,,,,,,,,,,,,,,,,,,,,,,,,,,,,,,,,,,,,,,
,,,,,,,,,,,,,,,,,2,2022-02-14_11h57.42.695,Initiation_Initiation,2020.1.3,MacIntel,Chrome,"Mozilla/5.0 (Macintosh; Intel Mac OS X 10_15_7) AppleWebKit/537.36 (KHTML, like Gecko) Chrome/98.0.4758.80 Safari/537.36",60,,,,,,,,,,,,,,,,,,,,,,,,,,,,,,,,,3,3,3,Hand,l,RT,0,0,85,1,0,1,99,1,l,0.4369,3,1,l,1,0.4369,85,0,85,0,1,,,,,,,,,,,,,,,,,,,,,,,,,,,,,,,,,,,,,,,,,,,,,,,,,,,,,,,,,,,,,,,,,,,,,,,,,,,,,,,,,,,
,,,,,,,,,,,,,,,,,2,2022-02-14_11h57.42.695,Initiation_Initiation,2020.1.3,MacIntel,Chrome,"Mozilla/5.0 (Macintosh; Intel Mac OS X 10_15_7) AppleWebKit/537.36 (KHTML, like Gecko) Chrome/98.0.4758.80 Safari/537.36",60,,,,,,,,,,,,,,,,,,,,,,,,,,,,,,,,,2,2,2,Hand,i,RT,0,0,86,1,0,1,99,1,i,0.5391,2,1,i,1,0.5391,86,0,86,0,1,,,,,,,,,,,,,,,,,,,,,,,,,,,,,,,,,,,,,,,,,,,,,,,,,,,,,,,,,,,,,,,,,,,,,,,,,,,,,,,,,,,
,,,,,,,,,,,,,,,,,2,2022-02-14_11h57.42.695,Initiation_Initiation,2020.1.3,MacIntel,Chrome,"Mozilla/5.0 (Macintosh; Intel Mac OS X 10_15_7) AppleWebKit/537.36 (KHTML, like Gecko) Chrome/98.0.4758.80 Safari/537.36",60,,,,,,,,,,,,,,,,,,,,,,,,,,,,,,,,,2,2,2,Hand,i,RT,0,0,87,1,0,1,99,1,i,0.5084,2,1,i,1,0.5084,87,0,87,0,1,,,,,,,,,,,,,,,,,,,,,,,,,,,,,,,,,,,,,,,,,,,,,,,,,,,,,,,,,,,,,,,,,,,,,,,,,,,,,,,,,,,
,,,,,,,,,,,,,,,,,2,2022-02-14_11h57.42.695,Initiation_Initiation,2020.1.3,MacIntel,Chrome,"Mozilla/5.0 (Macintosh; Intel Mac OS X 10_15_7) AppleWebKit/537.36 (KHTML, like Gecko) Chrome/98.0.4758.80 Safari/537.36",60,,,,,,,,,,,,,,,,,,,,,,,,,,,,,,,,,1,1,1,Hand,u,RT,0,0,88,1,0,1,99,1,u,0.5549,1,1,u,1,0.5549,88,0,88,0,1,,,,,,,,,,,,,,,,,,,,,,,,,,,,,,,,,,,,,,,,,,,,,,,,,,,,,,,,,,,,,,,,,,,,,,,,,,,,,,,,,,,
,,,,,,,,,,,,,,,,,2,2022-02-14_11h57.42.695,Initiation_Initiation,2020.1.3,MacIntel,Chrome,"Mozilla/5.0 (Macintosh; Intel Mac OS X 10_15_7) AppleWebKit/537.36 (KHTML, like Gecko) Chrome/98.0.4758.80 Safari/537.36",60,,,,,,,,,,,,,,,,,,,,,,,,,,,,,,,,,2,2,2,Hand,i,RT,0,0,89,1,0,1,99,1,i,0.4776,2,1,i,1,0.4776,89,0,89,0,1,,,,,,,,,,,,,,,,,,,,,,,,,,,,,,,,,,,,,,,,,,,,,,,,,,,,,,,,,,,,,,,,,,,,,,,,,,,,,,,,,,,
,,,,,,,,,,,,,,,,,2,2022-02-14_11h57.42.695,Initiation_Initiation,2020.1.3,MacIntel,Chrome,"Mozilla/5.0 (Macintosh; Intel Mac OS X 10_15_7) AppleWebKit/537.36 (KHTML, like Gecko) Chrome/98.0.4758.80 Safari/537.36",60,,,,,,,,,,,,,,,,,,,,,,,,,,,,,,,,,1,1,1,Hand,u,RT,0,0,90,1,0,1,99,1,u,0.4532,1,1,u,1,0.4532,90,0,90,0,1,,,,,,,,,,,,,,,,,,,,,,,,,,,,,,,,,,,,,,,,,,,,,,,,,,,,,,,,,,,,,,,,,,,,,,,,,,,,,,,,,,,
,,,,,,,,,,,,,,,,,2,2022-02-14_11h57.42.695,Initiation_Initiation,2020.1.3,MacIntel,Chrome,"Mozilla/5.0 (Macintosh; Intel Mac OS X 10_15_7) AppleWebKit/537.36 (KHTML, like Gecko) Chrome/98.0.4758.80 Safari/537.36",60,,,,,,,,,,,,,,,,,,,,,,,,,,,,,,,,,3,3,3,Hand,l,RT,0,0,91,1,0,1,99,1,l,0.4382,3,1,l,1,0.4382,91,0,91,0,1,,,,,,,,,,,,,,,,,,,,,,,,,,,,,,,,,,,,,,,,,,,,,,,,,,,,,,,,,,,,,,,,,,,,,,,,,,,,,,,,,,,
,,,,,,,,,,,,,,,,,2,2022-02-14_11h57.42.695,Initiation_Initiation,2020.1.3,MacIntel,Chrome,"Mozilla/5.0 (Macintosh; Intel Mac OS X 10_15_7) AppleWebKit/537.36 (KHTML, like Gecko) Chrome/98.0.4758.80 Safari/537.36",60,,,,,,,,,,,,,,,,,,,,,,,,,,,,,,,,,0,0,0,Hand,h,RT,0,0,92,1,0,1,99,1,h,0.3896,0,1,h,1,0.3896,92,0,92,0,1,,,,,,,,,,,,,,,,,,,,,,,,,,,,,,,,,,,,,,,,,,,,,,,,,,,,,,,,,,,,,,,,,,,,,,,,,,,,,,,,,,,
,,,,,,,,,,,,,,,,,2,2022-02-14_11h57.42.695,Initiation_Initiation,2020.1.3,MacIntel,Chrome,"Mozilla/5.0 (Macintosh; Intel Mac OS X 10_15_7) AppleWebKit/537.36 (KHTML, like Gecko) Chrome/98.0.4758.80 Safari/537.36",60,,,,,,,,,,,,,,,,,,,,,,,,,,,,,,,,,3,3,3,Hand,l,RT,0,0,93,1,0,1,99,1,l,0.4634,3,1,l,1,0.4634,93,0,93,0,1,,,,,,,,,,,,,,,,,,,,,,,,,,,,,,,,,,,,,,,,,,,,,,,,,,,,,,,,,,,,,,,,,,,,,,,,,,,,,,,,,,,
,,,,,,,,,,,,,,,,,2,2022-02-14_11h57.42.695,Initiation_Initiation,2020.1.3,MacIntel,Chrome,"Mozilla/5.0 (Macintosh; Intel Mac OS X 10_15_7) AppleWebKit/537.36 (KHTML, like Gecko) Chrome/98.0.4758.80 Safari/537.36",60,,,,,,,,,,,,,,,,,,,,,,,,,,,,,,,,,2,2,2,Hand,i,RT,0,0,94,1,0,1,99,1,i,0.4739,2,1,i,1,0.4739,94,0,94,0,1,,,,,,,,,,,,,,,,,,,,,,,,,,,,,,,,,,,,,,,,,,,,,,,,,,,,,,,,,,,,,,,,,,,,,,,,,,,,,,,,,,,
,,,,,,,,,,,,,,,,,2,2022-02-14_11h57.42.695,Initiation_Initiation,2020.1.3,MacIntel,Chrome,"Mozilla/5.0 (Macintosh; Intel Mac OS X 10_15_7) AppleWebKit/537.36 (KHTML, like Gecko) Chrome/98.0.4758.80 Safari/537.36",60,,,,,,,,,,,,,,,,,,,,,,,,,,,,,,,,,0,0,0,Hand,h,RT,0,0,95,1,0,1,99,1,h,0.4903,0,1,h,1,0.4903,95,0,95,0,1,,,,,,,,,,,,,,,,,,,,,,,,,,,,,,,,,,,,,,,,,,,,,,,,,,,,,,,,,,,,,,,,,,,,,,,,,,,,,,,,,,,
,,,,,,,,,,,,,,,,,2,2022-02-14_11h57.42.695,Initiation_Initiation,2020.1.3,MacIntel,Chrome,"Mozilla/5.0 (Macintosh; Intel Mac OS X 10_15_7) AppleWebKit/537.36 (KHTML, like Gecko) Chrome/98.0.4758.80 Safari/537.36",60,,,,,,,,,,,,,,,,,,,,,,,,,,,,,,,,,3,3,3,Hand,l,TR,0,0,0,1,0,1,0.563466143,1,a,99,8,0,,,,,,,,,h,17.2508,h,1.9853,,0,l,0.0007,0,0,0,0,1,,,,,,,,,,,,,,,,,,,,,,,,,,,,,,,,,,,,,,,,,,,,,,,,,,,,,,,,,,,,,,,,,,,,,,
,,,,,,,,,,,,,,,,,2,2022-02-14_11h57.42.695,Initiation_Initiation,2020.1.3,MacIntel,Chrome,"Mozilla/5.0 (Macintosh; Intel Mac OS X 10_15_7) AppleWebKit/537.36 (KHTML, like Gecko) Chrome/98.0.4758.80 Safari/537.36",60,,,,,,,,,,,,,,,,,,,,,,,,,,,,,,,,,,,,,,,,,,,,,,,,,,,,,,,,,,,,,,,,,,,,,,,,0,0,0,0,1,,,,,,,,,,,,,,,,,,,,,,,,,,,,,,,,,,,,,,,,,,,,,,,,,,,,,,,,,,,,,,,,,
,,,,,,,,,,,,,,,,,2,2022-02-14_11h57.42.695,Initiation_Initiation,2020.1.3,MacIntel,Chrome,"Mozilla/5.0 (Macintosh; Intel Mac OS X 10_15_7) AppleWebKit/537.36 (KHTML, like Gecko) Chrome/98.0.4758.80 Safari/537.36",60,,,,,,,,,,,,,,,,,,,,,,,,,,,,,,,,,3,3,3,Hand,l,TR,0,0,1,1,0,1,0.948903921,1,l,1.2586,3,1,,,,,,,,,,,,,l,1,,,,,,,,,,,,,1.2586,0,0,0,0,1,,,,,,,,,,,,,,,,,,,,,,,,,,,,,,,,,,,,,,,,,,,,,,,,,,,,,,,,,,,
,,,,,,,,,,,,,,,,,2,2022-02-14_11h57.42.695,Initiation_Initiation,2020.1.3,MacIntel,Chrome,"Mozilla/5.0 (Macintosh; Intel Mac OS X 10_15_7) AppleWebKit/537.36 (KHTML, like Gecko) Chrome/98.0.4758.80 Safari/537.36",60,,,,,,,,,,,,,,,,,,,,,,,,,,,,,,,,,,,,,,,,,,,,,,,,,,,,,,,,,,,,,,,,,,,,,,,,1,0,1,0,1,,,,,,,,,,,,,,,,,,,,,,,,,,,,,,,,,,,,,,,,,,,,,,,,,,,,,,,,,,,,,,,,,
,,,,,,,,,,,,,,,,,2,2022-02-14_11h57.42.695,Initiation_Initiation,2020.1.3,MacIntel,Chrome,"Mozilla/5.0 (Macintosh; Intel Mac OS X 10_15_7) AppleWebKit/537.36 (KHTML, like Gecko) Chrome/98.0.4758.80 Safari/537.36",60,,,,,,,,,,,,,,,,,,,,,,,,,,,,,,,,,1,1,1,Hand,u,TR,0,0,2,1,0,1,0.534046612,1,u,1.4089,1,1,,,,,,,,,,,,,u,1,,,,,,,,,,,,,1.4089,0,0,0,0,1,,,,,,,,,,,,,,,,,,,,,,,,,,,,,,,,,,,,,,,,,,,,,,,,,,,,,,,,,,,
,,,,,,,,,,,,,,,,,2,2022-02-14_11h57.42.695,Initiation_Initiation,2020.1.3,MacIntel,Chrome,"Mozilla/5.0 (Macintosh; Intel Mac OS X 10_15_7) AppleWebKit/537.36 (KHTML, like Gecko) Chrome/98.0.4758.80 Safari/537.36",60,,,,,,,,,,,,,,,,,,,,,,,,,,,,,,,,,,,,,,,,,,,,,,,,,,,,,,,,,,,,,,,,,,,,,,,,2,0,2,0,1,,,,,,,,,,,,,,,,,,,,,,,,,,,,,,,,,,,,,,,,,,,,,,,,,,,,,,,,,,,,,,,,,
,,,,,,,,,,,,,,,,,2,2022-02-14_11h57.42.695,Initiation_Initiation,2020.1.3,MacIntel,Chrome,"Mozilla/5.0 (Macintosh; Intel Mac OS X 10_15_7) AppleWebKit/537.36 (KHTML, like Gecko) Chrome/98.0.4758.80 Safari/537.36",60,,,,,,,,,,,,,,,,,,,,,,,,,,,,,,,,,2,2,2,Hand,i,TR,0,0,3,1,0,1,1.074597305,1,i,1.1772,2,1,,,,,,,,,,,,,i,1,,,,,,,,,,,,,1.1772,0,0,0,0,1,,,,,,,,,,,,,,,,,,,,,,,,,,,,,,,,,,,,,,,,,,,,,,,,,,,,,,,,,,,
,,,,,,,,,,,,,,,,,2,2022-02-14_11h57.42.695,Initiation_Initiation,2020.1.3,MacIntel,Chrome,"Mozilla/5.0 (Macintosh; Intel Mac OS X 10_15_7) AppleWebKit/537.36 (KHTML, like Gecko) Chrome/98.0.4758.80 Safari/537.36",60,,,,,,,,,,,,,,,,,,,,,,,,,,,,,,,,,,,,,,,,,,,,,,,,,,,,,,,,,,,,,,,,,,,,,,,,3,0,3,0,1,,,,,,,,,,,,,,,,,,,,,,,,,,,,,,,,,,,,,,,,,,,,,,,,,,,,,,,,,,,,,,,,,
,,,,,,,,,,,,,,,,,2,2022-02-14_11h57.42.695,Initiation_Initiation,2020.1.3,MacIntel,Chrome,"Mozilla/5.0 (Macintosh; Intel Mac OS X 10_15_7) AppleWebKit/537.36 (KHTML, like Gecko) Chrome/98.0.4758.80 Safari/537.36",60,,,,,,,,,,,,,,,,,,,,,,,,,,,,,,,,,1,1,1,Hand,u,TR,0,0,4,1,0,1,0.292606244,1,u,1.3419,1,1,,,,,,,,,,,,,u,1,,,,,,,,,,,,,1.3419,0,0,0,0,1,,,,,,,,,,,,,,,,,,,,,,,,,,,,,,,,,,,,,,,,,,,,,,,,,,,,,,,,,,,
,,,,,,,,,,,,,,,,,2,2022-02-14_11h57.42.695,Initiation_Initiation,2020.1.3,MacIntel,Chrome,"Mozilla/5.0 (Macintosh; Intel Mac OS X 10_15_7) AppleWebKit/537.36 (KHTML, like Gecko) Chrome/98.0.4758.80 Safari/537.36",60,,,,,,,,,,,,,,,,,,,,,,,,,,,,,,,,,,,,,,,,,,,,,,,,,,,,,,,,,,,,,,,,,,,,,,,,4,0,4,0,1,,,,,,,,,,,,,,,,,,,,,,,,,,,,,,,,,,,,,,,,,,,,,,,,,,,,,,,,,,,,,,,,,
,,,,,,,,,,,,,,,,,2,2022-02-14_11h57.42.695,Initiation_Initiation,2020.1.3,MacIntel,Chrome,"Mozilla/5.0 (Macintosh; Intel Mac OS X 10_15_7) AppleWebKit/537.36 (KHTML, like Gecko) Chrome/98.0.4758.80 Safari/537.36",60,,,,,,,,,,,,,,,,,,,,,,,,,,,,,,,,,0,0,0,Hand,h,TR,0,0,5,1,0,1,1.171006436,1,h,1.3413,0,1,,,,,,,,,,,,,h,1,,,,,,,,,,,,,1.3413,0,0,0,0,1,,,,,,,,,,,,,,,,,,,,,,,,,,,,,,,,,,,,,,,,,,,,,,,,,,,,,,,,,,,
,,,,,,,,,,,,,,,,,2,2022-02-14_11h57.42.695,Initiation_Initiation,2020.1.3,MacIntel,Chrome,"Mozilla/5.0 (Macintosh; Intel Mac OS X 10_15_7) AppleWebKit/537.36 (KHTML, like Gecko) Chrome/98.0.4758.80 Safari/537.36",60,,,,,,,,,,,,,,,,,,,,,,,,,,,,,,,,,,,,,,,,,,,,,,,,,,,,,,,,,,,,,,,,,,,,,,,,5,0,5,0,1,,,,,,,,,,,,,,,,,,,,,,,,,,,,,,,,,,,,,,,,,,,,,,,,,,,,,,,,,,,,,,,,,
,,,,,,,,,,,,,,,,,2,2022-02-14_11h57.42.695,Initiation_Initiation,2020.1.3,MacIntel,Chrome,"Mozilla/5.0 (Macintosh; Intel Mac OS X 10_15_7) AppleWebKit/537.36 (KHTML, like Gecko) Chrome/98.0.4758.80 Safari/537.36",60,,,,,,,,,,,,,,,,,,,,,,,,,,,,,,,,,2,2,2,Hand,i,TR,0,0,6,1,0,1,0.760988656,1,i,1.3166,2,1,,,,,,,,,,,,,i,1,,,,,,,,,,,,,1.3166,0,0,0,0,1,,,,,,,,,,,,,,,,,,,,,,,,,,,,,,,,,,,,,,,,,,,,,,,,,,,,,,,,,,,
,,,,,,,,,,,,,,,,,2,2022-02-14_11h57.42.695,Initiation_Initiation,2020.1.3,MacIntel,Chrome,"Mozilla/5.0 (Macintosh; Intel Mac OS X 10_15_7) AppleWebKit/537.36 (KHTML, like Gecko) Chrome/98.0.4758.80 Safari/537.36",60,,,,,,,,,,,,,,,,,,,,,,,,,,,,,,,,,,,,,,,,,,,,,,,,,,,,,,,,,,,,,,,,,,,,,,,,6,0,6,0,1,,,,,,,,,,,,,,,,,,,,,,,,,,,,,,,,,,,,,,,,,,,,,,,,,,,,,,,,,,,,,,,,,
,,,,,,,,,,,,,,,,,2,2022-02-14_11h57.42.695,Initiation_Initiation,2020.1.3,MacIntel,Chrome,"Mozilla/5.0 (Macintosh; Intel Mac OS X 10_15_7) AppleWebKit/537.36 (KHTML, like Gecko) Chrome/98.0.4758.80 Safari/537.36",60,,,,,,,,,,,,,,,,,,,,,,,,,,,,,,,,,0,0,0,Hand,h,TR,0,0,7,1,0,1,0.738266918,1,h,1.143,0,1,,,,,,,,,,,,,h,1,,,,,,,,,,,,,1.143,0,0,0,0,1,,,,,,,,,,,,,,,,,,,,,,,,,,,,,,,,,,,,,,,,,,,,,,,,,,,,,,,,,,,
,,,,,,,,,,,,,,,,,2,2022-02-14_11h57.42.695,Initiation_Initiation,2020.1.3,MacIntel,Chrome,"Mozilla/5.0 (Macintosh; Intel Mac OS X 10_15_7) AppleWebKit/537.36 (KHTML, like Gecko) Chrome/98.0.4758.80 Safari/537.36",60,,,,,,,,,,,,,,,,,,,,,,,,,,,,,,,,,,,,,,,,,,,,,,,,,,,,,,,,,,,,,,,,,,,,,,,,7,0,7,0,1,,,,,,,,,,,,,,,,,,,,,,,,,,,,,,,,,,,,,,,,,,,,,,,,,,,,,,,,,,,,,,,,,
,,,,,,,,,,,,,,,,,2,2022-02-14_11h57.42.695,Initiation_Initiation,2020.1.3,MacIntel,Chrome,"Mozilla/5.0 (Macintosh; Intel Mac OS X 10_15_7) AppleWebKit/537.36 (KHTML, like Gecko) Chrome/98.0.4758.80 Safari/537.36",60,,,,,,,,,,,,,,,,,,,,,,,,,,,,,,,,,3,3,3,Hand,l,TR,0,0,8,1,0,1,1.124516611,1,l,1.4002,3,1,,,,,,,,,,,,,l,1,,,,,,,,,,,,,1.4002,0,0,0,0,1,,,,,,,,,,,,,,,,,,,,,,,,,,,,,,,,,,,,,,,,,,,,,,,,,,,,,,,,,,,
,,,,,,,,,,,,,,,,,2,2022-02-14_11h57.42.695,Initiation_Initiation,2020.1.3,MacIntel,Chrome,"Mozilla/5.0 (Macintosh; Intel Mac OS X 10_15_7) AppleWebKit/537.36 (KHTML, like Gecko) Chrome/98.0.4758.80 Safari/537.36",60,,,,,,,,,,,,,,,,,,,,,,,,,,,,,,,,,,,,,,,,,,,,,,,,,,,,,,,,,,,,,,,,,,,,,,,,8,0,8,0,1,,,,,,,,,,,,,,,,,,,,,,,,,,,,,,,,,,,,,,,,,,,,,,,,,,,,,,,,,,,,,,,,,
,,,,,,,,,,,,,,,,,2,2022-02-14_11h57.42.695,Initiation_Initiation,2020.1.3,MacIntel,Chrome,"Mozilla/5.0 (Macintosh; Intel Mac OS X 10_15_7) AppleWebKit/537.36 (KHTML, like Gecko) Chrome/98.0.4758.80 Safari/537.36",60,,,,,,,,,,,,,,,,,,,,,,,,,,,,,,,,,3,3,3,Hand,l,TR,0,0,9,1,0,1,0.182141109,1,a,99,8,0,,,,,,,,,,,,,,0,l,0.0617,0,0,0,0,1,,,,,,,,,,,,,,,,,,,,,,,,,,,,,,,,,,,,,,,,,,,,,,,,,,,,,,,,,,,,,,,,,,,,,,
,,,,,,,,,,,,,,,,,2,2022-02-14_11h57.42.695,Initiation_Initiation,2020.1.3,MacIntel,Chrome,"Mozilla/5.0 (Macintosh; Intel Mac OS X 10_15_7) AppleWebKit/537.36 (KHTML, like Gecko) Chrome/98.0.4758.80 Safari/537.36",60,,,,,,,,,,,,,,,,,,,,,,,,,,,,,,,,,,,,,,,,,,,,,,,,,,,,,,,,,,,,,,,,,,,,,,,,9,0,9,0,1,,,,,,,,,,,,,,,,,,,,,,,,,,,,,,,,,,,,,,,,,,,,,,,,,,,,,,,,,,,,,,,,,
,,,,,,,,,,,,,,,,,2,2022-02-14_11h57.42.695,Initiation_Initiation,2020.1.3,MacIntel,Chrome,"Mozilla/5.0 (Macintosh; Intel Mac OS X 10_15_7) AppleWebKit/537.36 (KHTML, like Gecko) Chrome/98.0.4758.80 Safari/537.36",60,,,,,,,,,,,,,,,,,,,,,,,,,,,,,,,,,2,2,2,Hand,i,TR,0,0,10,1,0,1,1.052212331,1,a,99,8,0,,,,,,,,,,,,,,0,i,0.0006,0,0,0,0,1,,,,,,,,,,,,,,,,,,,,,,,,,,,,,,,,,,,,,,,,,,,,,,,,,,,,,,,,,,,,,,,,,,,,,,
,,,,,,,,,,,,,,,,,2,2022-02-14_11h57.42.695,Initiation_Initiation,2020.1.3,MacIntel,Chrome,"Mozilla/5.0 (Macintosh; Intel Mac OS X 10_15_7) AppleWebKit/537.36 (KHTML, like Gecko) Chrome/98.0.4758.80 Safari/537.36",60,,,,,,,,,,,,,,,,,,,,,,,,,,,,,,,,,,,,,,,,,,,,,,,,,,,,,,,,,,,,,,,,,,,,,,,,10,0,10,0,1,,,,,,,,,,,,,,,,,,,,,,,,,,,,,,,,,,,,,,,,,,,,,,,,,,,,,,,,,,,,,,,,,
,,,,,,,,,,,,,,,,,2,2022-02-14_11h57.42.695,Initiation_Initiation,2020.1.3,MacIntel,Chrome,"Mozilla/5.0 (Macintosh; Intel Mac OS X 10_15_7) AppleWebKit/537.36 (KHTML, like Gecko) Chrome/98.0.4758.80 Safari/537.36",60,,,,,,,,,,,,,,,,,,,,,,,,,,,,,,,,,1,1,1,Hand,u,TR,0,0,11,1,0,1,0.806761153,1,u,1.4115,1,1,,,,,,,,,,,,,u,1,,,,,,,,,,,,,1.4115,0,0,0,0,1,,,,,,,,,,,,,,,,,,,,,,,,,,,,,,,,,,,,,,,,,,,,,,,,,,,,,,,,,,,
,,,,,,,,,,,,,,,,,2,2022-02-14_11h57.42.695,Initiation_Initiation,2020.1.3,MacIntel,Chrome,"Mozilla/5.0 (Macintosh; Intel Mac OS X 10_15_7) AppleWebKit/537.36 (KHTML, like Gecko) Chrome/98.0.4758.80 Safari/537.36",60,,,,,,,,,,,,,,,,,,,,,,,,,,,,,,,,,,,,,,,,,,,,,,,,,,,,,,,,,,,,,,,,,,,,,,,,11,0,11,0,1,,,,,,,,,,,,,,,,,,,,,,,,,,,,,,,,,,,,,,,,,,,,,,,,,,,,,,,,,,,,,,,,,
,,,,,,,,,,,,,,,,,2,2022-02-14_11h57.42.695,Initiation_Initiation,2020.1.3,MacIntel,Chrome,"Mozilla/5.0 (Macintosh; Intel Mac OS X 10_15_7) AppleWebKit/537.36 (KHTML, like Gecko) Chrome/98.0.4758.80 Safari/537.36",60,,,,,,,,,,,,,,,,,,,,,,,,,,,,,,,,,1,1,1,Hand,u,TR,0,0,12,1,0,1,0.874931252,1,u,1.3242,1,1,,,,,,,,,,,,,u,1,,,,,,,,,,,,,1.3242,0,0,0,0,1,,,,,,,,,,,,,,,,,,,,,,,,,,,,,,,,,,,,,,,,,,,,,,,,,,,,,,,,,,,
,,,,,,,,,,,,,,,,,2,2022-02-14_11h57.42.695,Initiation_Initiation,2020.1.3,MacIntel,Chrome,"Mozilla/5.0 (Macintosh; Intel Mac OS X 10_15_7) AppleWebKit/537.36 (KHTML, like Gecko) Chrome/98.0.4758.80 Safari/537.36",60,,,,,,,,,,,,,,,,,,,,,,,,,,,,,,,,,,,,,,,,,,,,,,,,,,,,,,,,,,,,,,,,,,,,,,,,12,0,12,0,1,,,,,,,,,,,,,,,,,,,,,,,,,,,,,,,,,,,,,,,,,,,,,,,,,,,,,,,,,,,,,,,,,
,,,,,,,,,,,,,,,,,2,2022-02-14_11h57.42.695,Initiation_Initiation,2020.1.3,MacIntel,Chrome,"Mozilla/5.0 (Macintosh; Intel Mac OS X 10_15_7) AppleWebKit/537.36 (KHTML, like Gecko) Chrome/98.0.4758.80 Safari/537.36",60,,,,,,,,,,,,,,,,,,,,,,,,,,,,,,,,,2,2,2,Hand,i,TR,0,0,13,1,0,1,0.742184531,1,i,1.3089,2,1,,,,,,,,,,,,,i,1,,,,,,,,,,,,,1.3089,0,0,0,0,1,,,,,,,,,,,,,,,,,,,,,,,,,,,,,,,,,,,,,,,,,,,,,,,,,,,,,,,,,,,
,,,,,,,,,,,,,,,,,2,2022-02-14_11h57.42.695,Initiation_Initiation,2020.1.3,MacIntel,Chrome,"Mozilla/5.0 (Macintosh; Intel Mac OS X 10_15_7) AppleWebKit/537.36 (KHTML, like Gecko) Chrome/98.0.4758.80 Safari/537.36",60,,,,,,,,,,,,,,,,,,,,,,,,,,,,,,,,,,,,,,,,,,,,,,,,,,,,,,,,,,,,,,,,,,,,,,,,13,0,13,0,1,,,,,,,,,,,,,,,,,,,,,,,,,,,,,,,,,,,,,,,,,,,,,,,,,,,,,,,,,,,,,,,,,
,,,,,,,,,,,,,,,,,2,2022-02-14_11h57.42.695,Initiation_Initiation,2020.1.3,MacIntel,Chrome,"Mozilla/5.0 (Macintosh; Intel Mac OS X 10_15_7) AppleWebKit/537.36 (KHTML, like Gecko) Chrome/98.0.4758.80 Safari/537.36",60,,,,,,,,,,,,,,,,,,,,,,,,,,,,,,,,,0,0,0,Hand,h,TR,0,0,14,1,0,1,0.384818909,1,h,1.4237,0,1,,,,,,,,,,,,,h,1,,,,,,,,,,,,,1.4237,0,0,0,0,1,,,,,,,,,,,,,,,,,,,,,,,,,,,,,,,,,,,,,,,,,,,,,,,,,,,,,,,,,,,
,,,,,,,,,,,,,,,,,2,2022-02-14_11h57.42.695,Initiation_Initiation,2020.1.3,MacIntel,Chrome,"Mozilla/5.0 (Macintosh; Intel Mac OS X 10_15_7) AppleWebKit/537.36 (KHTML, like Gecko) Chrome/98.0.4758.80 Safari/537.36",60,,,,,,,,,,,,,,,,,,,,,,,,,,,,,,,,,,,,,,,,,,,,,,,,,,,,,,,,,,,,,,,,,,,,,,,,14,0,14,0,1,,,,,,,,,,,,,,,,,,,,,,,,,,,,,,,,,,,,,,,,,,,,,,,,,,,,,,,,,,,,,,,,,
,,,,,,,,,,,,,,,,,2,2022-02-14_11h57.42.695,Initiation_Initiation,2020.1.3,MacIntel,Chrome,"Mozilla/5.0 (Macintosh; Intel Mac OS X 10_15_7) AppleWebKit/537.36 (KHTML, like Gecko) Chrome/98.0.4758.80 Safari/537.36",60,,,,,,,,,,,,,,,,,,,,,,,,,,,,,,,,,0,0,0,Hand,h,TR,0,0,15,1,0,1,1.166348021,1,h,1.3288,0,1,,,,,,,,,,,,,h,1,,,,,,,,,,,,,1.3288,0,0,0,0,1,,,,,,,,,,,,,,,,,,,,,,,,,,,,,,,,,,,,,,,,,,,,,,,,,,,,,,,,,,,
,,,,,,,,,,,,,,,,,2,2022-02-14_11h57.42.695,Initiation_Initiation,2020.1.3,MacIntel,Chrome,"Mozilla/5.0 (Macintosh; Intel Mac OS X 10_15_7) AppleWebKit/537.36 (KHTML, like Gecko) Chrome/98.0.4758.80 Safari/537.36",60,,,,,,,,,,,,,,,,,,,,,,,,,,,,,,,,,,,,,,,,,,,,,,,,,,,,,,,,,,,,,,,,,,,,,,,,15,0,15,0,1,,,,,,,,,,,,,,,,,,,,,,,,,,,,,,,,,,,,,,,,,,,,,,,,,,,,,,,,,,,,,,,,,
,,,,,,,,,,,,,,,,,2,2022-02-14_11h57.42.695,Initiation_Initiation,2020.1.3,MacIntel,Chrome,"Mozilla/5.0 (Macintosh; Intel Mac OS X 10_15_7) AppleWebKit/537.36 (KHTML, like Gecko) Chrome/98.0.4758.80 Safari/537.36",60,,,,,,,,,,,,,,,,,,,,,,,,,,,,,,,,,3,3,3,Hand,l,TR,0,0,16,1,0,1,0.173066635,1,l,1.4456,3,1,,,,,,,,,,,,,l,1,,,,,,,,,,,,,1.4456,0,0,0,0,1,,,,,,,,,,,,,,,,,,,,,,,,,,,,,,,,,,,,,,,,,,,,,,,,,,,,,,,,,,,
,,,,,,,,,,,,,,,,,2,2022-02-14_11h57.42.695,Initiation_Initiation,2020.1.3,MacIntel,Chrome,"Mozilla/5.0 (Macintosh; Intel Mac OS X 10_15_7) AppleWebKit/537.36 (KHTML, like Gecko) Chrome/98.0.4758.80 Safari/537.36",60,,,,,,,,,,,,,,,,,,,,,,,,,,,,,,,,,,,,,,,,,,,,,,,,,,,,,,,,,,,,,,,,,,,,,,,,16,0,16,0,1,,,,,,,,,,,,,,,,,,,,,,,,,,,,,,,,,,,,,,,,,,,,,,,,,,,,,,,,,,,,,,,,,
,,,,,,,,,,,,,,,,,2,2022-02-14_11h57.42.695,Initiation_Initiation,2020.1.3,MacIntel,Chrome,"Mozilla/5.0 (Macintosh; Intel Mac OS X 10_15_7) AppleWebKit/537.36 (KHTML, like Gecko) Chrome/98.0.4758.80 Safari/537.36",60,,,,,,,,,,,,,,,,,,,,,,,,,,,,,,,,,2,2,2,Hand,i,TR,0,0,17,1,0,1,0.259286827,1,i,1.2919,2,1,,,,,,,,,,,,,i,1,,,,,,,,,,,,,1.2919,0,0,0,0,1,,,,,,,,,,,,,,,,,,,,,,,,,,,,,,,,,,,,,,,,,,,,,,,,,,,,,,,,,,,
,,,,,,,,,,,,,,,,,2,2022-02-14_11h57.42.695,Initiation_Initiation,2020.1.3,MacIntel,Chrome,"Mozilla/5.0 (Macintosh; Intel Mac OS X 10_15_7) AppleWebKit/537.36 (KHTML, like Gecko) Chrome/98.0.4758.80 Safari/537.36",60,,,,,,,,,,,,,,,,,,,,,,,,,,,,,,,,,,,,,,,,,,,,,,,,,,,,,,,,,,,,,,,,,,,,,,,,17,0,17,0,1,,,,,,,,,,,,,,,,,,,,,,,,,,,,,,,,,,,,,,,,,,,,,,,,,,,,,,,,,,,,,,,,,
,,,,,,,,,,,,,,,,,2,2022-02-14_11h57.42.695,Initiation_Initiation,2020.1.3,MacIntel,Chrome,"Mozilla/5.0 (Macintosh; Intel Mac OS X 10_15_7) AppleWebKit/537.36 (KHTML, like Gecko) Chrome/98.0.4758.80 Safari/537.36",60,,,,,,,,,,,,,,,,,,,,,,,,,,,,,,,,,0,0,0,Hand,h,TR,0,0,18,1,0,1,0.964308736,1,h,1.259,0,1,,,,,,,,,,,,,h,1,,,,,,,,,,,,,1.259,0,0,0,0,1,,,,,,,,,,,,,,,,,,,,,,,,,,,,,,,,,,,,,,,,,,,,,,,,,,,,,,,,,,,
,,,,,,,,,,,,,,,,,2,2022-02-14_11h57.42.695,Initiation_Initiation,2020.1.3,MacIntel,Chrome,"Mozilla/5.0 (Macintosh; Intel Mac OS X 10_15_7) AppleWebKit/537.36 (KHTML, like Gecko) Chrome/98.0.4758.80 Safari/537.36",60,,,,,,,,,,,,,,,,,,,,,,,,,,,,,,,,,,,,,,,,,,,,,,,,,,,,,,,,,,,,,,,,,,,,,,,,18,0,18,0,1,,,,,,,,,,,,,,,,,,,,,,,,,,,,,,,,,,,,,,,,,,,,,,,,,,,,,,,,,,,,,,,,,
,,,,,,,,,,,,,,,,,2,2022-02-14_11h57.42.695,Initiation_Initiation,2020.1.3,MacIntel,Chrome,"Mozilla/5.0 (Macintosh; Intel Mac OS X 10_15_7) AppleWebKit/537.36 (KHTML, like Gecko) Chrome/98.0.4758.80 Safari/537.36",60,,,,,,,,,,,,,,,,,,,,,,,,,,,,,,,,,1,1,1,Hand,u,TR,0,0,19,1,0,1,0.689673477,1,u,1.3312,1,1,,,,,,,,,,,,,u,1,,,,,,,,,,,,,1.3312,0,0,0,0,1,,,,,,,,,,,,,,,,,,,,,,,,,,,,,,,,,,,,,,,,,,,,,,,,,,,,,,,,,,,
,,,,,,,,,,,,,,,,,2,2022-02-14_11h57.42.695,Initiation_Initiation,2020.1.3,MacIntel,Chrome,"Mozilla/5.0 (Macintosh; Intel Mac OS X 10_15_7) AppleWebKit/537.36 (KHTML, like Gecko) Chrome/98.0.4758.80 Safari/537.36",60,,,,,,,,,,,,,,,,,,,,,,,,,,,,,,,,,,,,,,,,,,,,,,,,,,,,,,,,,,,,,,,,,,,,,,,,19,0,19,0,1,,,,,,,,,,,,,,,,,,,,,,,,,,,,,,,,,,,,,,,,,,,,,,,,,,,,,,,,,,,,,,,,,
,,,,,,,,,,,,,,,,,2,2022-02-14_11h57.42.695,Initiation_Initiation,2020.1.3,MacIntel,Chrome,"Mozilla/5.0 (Macintosh; Intel Mac OS X 10_15_7) AppleWebKit/537.36 (KHTML, like Gecko) Chrome/98.0.4758.80 Safari/537.36",60,,,,,,,,,,,,,,,,,,,,,,,,,,,,,,,,,1,1,1,Hand,u,TR,0,0,20,1,0,1,0.084119472,1,a,99,8,0,,,,,,,,,,,,,,0,u,0.0614,0,0,0,0,1,,,,,,,,,,,,,,,,,,,,,,,,,,,,,,,,,,,,,,,,,,,,,,,,,,,,,,,,,,,,,,,,,,,,,,
,,,,,,,,,,,,,,,,,2,2022-02-14_11h57.42.695,Initiation_Initiation,2020.1.3,MacIntel,Chrome,"Mozilla/5.0 (Macintosh; Intel Mac OS X 10_15_7) AppleWebKit/537.36 (KHTML, like Gecko) Chrome/98.0.4758.80 Safari/537.36",60,,,,,,,,,,,,,,,,,,,,,,,,,,,,,,,,,,,,,,,,,,,,,,,,,,,,,,,,,,,,,,,,,,,,,,,,20,0,20,0,1,,,,,,,,,,,,,,,,,,,,,,,,,,,,,,,,,,,,,,,,,,,,,,,,,,,,,,,,,,,,,,,,,
,,,,,,,,,,,,,,,,,2,2022-02-14_11h57.42.695,Initiation_Initiation,2020.1.3,MacIntel,Chrome,"Mozilla/5.0 (Macintosh; Intel Mac OS X 10_15_7) AppleWebKit/537.36 (KHTML, like Gecko) Chrome/98.0.4758.80 Safari/537.36",60,,,,,,,,,,,,,,,,,,,,,,,,,,,,,,,,,3,3,3,Hand,l,TR,0,0,21,1,0,1,0.857050325,1,l,1.3309,3,1,,,,,,,,,,,,,l,1,,,,,,,,,,,,,1.3309,0,0,0,0,1,,,,,,,,,,,,,,,,,,,,,,,,,,,,,,,,,,,,,,,,,,,,,,,,,,,,,,,,,,,
,,,,,,,,,,,,,,,,,2,2022-02-14_11h57.42.695,Initiation_Initiation,2020.1.3,MacIntel,Chrome,"Mozilla/5.0 (Macintosh; Intel Mac OS X 10_15_7) AppleWebKit/537.36 (KHTML, like Gecko) Chrome/98.0.4758.80 Safari/537.36",60,,,,,,,,,,,,,,,,,,,,,,,,,,,,,,,,,,,,,,,,,,,,,,,,,,,,,,,,,,,,,,,,,,,,,,,,21,0,21,0,1,,,,,,,,,,,,,,,,,,,,,,,,,,,,,,,,,,,,,,,,,,,,,,,,,,,,,,,,,,,,,,,,,
,,,,,,,,,,,,,,,,,2,2022-02-14_11h57.42.695,Initiation_Initiation,2020.1.3,MacIntel,Chrome,"Mozilla/5.0 (Macintosh; Intel Mac OS X 10_15_7) AppleWebKit/537.36 (KHTML, like Gecko) Chrome/98.0.4758.80 Safari/537.36",60,,,,,,,,,,,,,,,,,,,,,,,,,,,,,,,,,2,2,2,Hand,i,TR,0,0,22,1,0,1,1.189184304,1,i,1.2601,2,1,,,,,,,,,,,,,i,1,,,,,,,,,,,,,1.2601,0,0,0,0,1,,,,,,,,,,,,,,,,,,,,,,,,,,,,,,,,,,,,,,,,,,,,,,,,,,,,,,,,,,,
,,,,,,,,,,,,,,,,,2,2022-02-14_11h57.42.695,Initiation_Initiation,2020.1.3,MacIntel,Chrome,"Mozilla/5.0 (Macintosh; Intel Mac OS X 10_15_7) AppleWebKit/537.36 (KHTML, like Gecko) Chrome/98.0.4758.80 Safari/537.36",60,,,,,,,,,,,,,,,,,,,,,,,,,,,,,,,,,,,,,,,,,,,,,,,,,,,,,,,,,,,,,,,,,,,,,,,,22,0,22,0,1,,,,,,,,,,,,,,,,,,,,,,,,,,,,,,,,,,,,,,,,,,,,,,,,,,,,,,,,,,,,,,,,,
,,,,,,,,,,,,,,,,,2,2022-02-14_11h57.42.695,Initiation_Initiation,2020.1.3,MacIntel,Chrome,"Mozilla/5.0 (Macintosh; Intel Mac OS X 10_15_7) AppleWebKit/537.36 (KHTML, like Gecko) Chrome/98.0.4758.80 Safari/537.36",60,,,,,,,,,,,,,,,,,,,,,,,,,,,,,,,,,0,0,0,Hand,h,TR,0,0,23,1,0,1,1.034469532,1,h,1.4086,0,1,,,,,,,,,,,,,h,1,,,,,,,,,,,,,1.4086,0,0,0,0,1,,,,,,,,,,,,,,,,,,,,,,,,,,,,,,,,,,,,,,,,,,,,,,,,,,,,,,,,,,,
,,,,,,,,,,,,,,,,,2,2022-02-14_11h57.42.695,Initiation_Initiation,2020.1.3,MacIntel,Chrome,"Mozilla/5.0 (Macintosh; Intel Mac OS X 10_15_7) AppleWebKit/537.36 (KHTML, like Gecko) Chrome/98.0.4758.80 Safari/537.36",60,,,,,,,,,,,,,,,,,,,,,,,,,,,,,,,,,,,,,,,,,,,,,,,,,,,,,,,,,,,,,,,,,,,,,,,,23,0,23,0,1,,,,,,,,,,,,,,,,,,,,,,,,,,,,,,,,,,,,,,,,,,,,,,,,,,,,,,,,,,,,,,,,,
,,,,,,,,,,,,,,,,,2,2022-02-14_11h57.42.695,Initiation_Initiation,2020.1.3,MacIntel,Chrome,"Mozilla/5.0 (Macintosh; Intel Mac OS X 10_15_7) AppleWebKit/537.36 (KHTML, like Gecko) Chrome/98.0.4758.80 Safari/537.36",60,,,,,,,,,,,,,,,,,,,,,,,,,,,,,,,,,2,2,2,Hand,i,TR,0,0,24,1,0,1,0.863786963,1,i,1.2954,2,1,,,,,,,,,,,,,i,1,,,,,,,,,,,,,1.2954,0,0,0,0,1,,,,,,,,,,,,,,,,,,,,,,,,,,,,,,,,,,,,,,,,,,,,,,,,,,,,,,,,,,,
,,,,,,,,,,,,,,,,,2,2022-02-14_11h57.42.695,Initiation_Initiation,2020.1.3,MacIntel,Chrome,"Mozilla/5.0 (Macintosh; Intel Mac OS X 10_15_7) AppleWebKit/537.36 (KHTML, like Gecko) Chrome/98.0.4758.80 Safari/537.36",60,,,,,,,,,,,,,,,,,,,,,,,,,,,,,,,,,,,,,,,,,,,,,,,,,,,,,,,,,,,,,,,,,,,,,,,,24,0,24,0,1,,,,,,,,,,,,,,,,,,,,,,,,,,,,,,,,,,,,,,,,,,,,,,,,,,,,,,,,,,,,,,,,,
,,,,,,,,,,,,,,,,,2,2022-02-14_11h57.42.695,Initiation_Initiation,2020.1.3,MacIntel,Chrome,"Mozilla/5.0 (Macintosh; Intel Mac OS X 10_15_7) AppleWebKit/537.36 (KHTML, like Gecko) Chrome/98.0.4758.80 Safari/537.36",60,,,,,,,,,,,,,,,,,,,,,,,,,,,,,,,,,1,1,1,Hand,u,TR,0,0,25,1,0,1,0.924578499,1,u,1.2588,1,1,,,,,,,,,,,,,u,1,,,,,,,,,,,,,1.2588,0,0,0,0,1,,,,,,,,,,,,,,,,,,,,,,,,,,,,,,,,,,,,,,,,,,,,,,,,,,,,,,,,,,,
,,,,,,,,,,,,,,,,,2,2022-02-14_11h57.42.695,Initiation_Initiation,2020.1.3,MacIntel,Chrome,"Mozilla/5.0 (Macintosh; Intel Mac OS X 10_15_7) AppleWebKit/537.36 (KHTML, like Gecko) Chrome/98.0.4758.80 Safari/537.36",60,,,,,,,,,,,,,,,,,,,,,,,,,,,,,,,,,,,,,,,,,,,,,,,,,,,,,,,,,,,,,,,,,,,,,,,,25,0,25,0,1,,,,,,,,,,,,,,,,,,,,,,,,,,,,,,,,,,,,,,,,,,,,,,,,,,,,,,,,,,,,,,,,,
,,,,,,,,,,,,,,,,,2,2022-02-14_11h57.42.695,Initiation_Initiation,2020.1.3,MacIntel,Chrome,"Mozilla/5.0 (Macintosh; Intel Mac OS X 10_15_7) AppleWebKit/537.36 (KHTML, like Gecko) Chrome/98.0.4758.80 Safari/537.36",60,,,,,,,,,,,,,,,,,,,,,,,,,,,,,,,,,2,2,2,Hand,i,TR,0,0,26,1,0,1,1.112277059,1,i,1.3783,2,1,,,,,,,,,,,,,i,1,,,,,,,,,,,,,1.3783,0,0,0,0,1,,,,,,,,,,,,,,,,,,,,,,,,,,,,,,,,,,,,,,,,,,,,,,,,,,,,,,,,,,,
,,,,,,,,,,,,,,,,,2,2022-02-14_11h57.42.695,Initiation_Initiation,2020.1.3,MacIntel,Chrome,"Mozilla/5.0 (Macintosh; Intel Mac OS X 10_15_7) AppleWebKit/537.36 (KHTML, like Gecko) Chrome/98.0.4758.80 Safari/537.36",60,,,,,,,,,,,,,,,,,,,,,,,,,,,,,,,,,,,,,,,,,,,,,,,,,,,,,,,,,,,,,,,,,,,,,,,,26,0,26,0,1,,,,,,,,,,,,,,,,,,,,,,,,,,,,,,,,,,,,,,,,,,,,,,,,,,,,,,,,,,,,,,,,,
,,,,,,,,,,,,,,,,,2,2022-02-14_11h57.42.695,Initiation_Initiation,2020.1.3,MacIntel,Chrome,"Mozilla/5.0 (Macintosh; Intel Mac OS X 10_15_7) AppleWebKit/537.36 (KHTML, like Gecko) Chrome/98.0.4758.80 Safari/537.36",60,,,,,,,,,,,,,,,,,,,,,,,,,,,,,,,,,0,0,0,Hand,h,TR,0,0,27,1,0,1,0.395753429,1,h,1.3972,0,1,,,,,,,,,,,,,h,1,,,,,,,,,,,,,1.3972,0,0,0,0,1,,,,,,,,,,,,,,,,,,,,,,,,,,,,,,,,,,,,,,,,,,,,,,,,,,,,,,,,,,,
,,,,,,,,,,,,,,,,,2,2022-02-14_11h57.42.695,Initiation_Initiation,2020.1.3,MacIntel,Chrome,"Mozilla/5.0 (Macintosh; Intel Mac OS X 10_15_7) AppleWebKit/537.36 (KHTML, like Gecko) Chrome/98.0.4758.80 Safari/537.36",60,,,,,,,,,,,,,,,,,,,,,,,,,,,,,,,,,,,,,,,,,,,,,,,,,,,,,,,,,,,,,,,,,,,,,,,,27,0,27,0,1,,,,,,,,,,,,,,,,,,,,,,,,,,,,,,,,,,,,,,,,,,,,,,,,,,,,,,,,,,,,,,,,,
,,,,,,,,,,,,,,,,,2,2022-02-14_11h57.42.695,Initiation_Initiation,2020.1.3,MacIntel,Chrome,"Mozilla/5.0 (Macintosh; Intel Mac OS X 10_15_7) AppleWebKit/537.36 (KHTML, like Gecko) Chrome/98.0.4758.80 Safari/537.36",60,,,,,,,,,,,,,,,,,,,,,,,,,,,,,,,,,3,3,3,Hand,l,TR,0,0,28,1,0,1,0.667028048,1,l,1.2926,3,1,,,,,,,,,,,,,l,1,,,,,,,,,,,,,1.2926,0,0,0,0,1,,,,,,,,,,,,,,,,,,,,,,,,,,,,,,,,,,,,,,,,,,,,,,,,,,,,,,,,,,,
,,,,,,,,,,,,,,,,,2,2022-02-14_11h57.42.695,Initiation_Initiation,2020.1.3,MacIntel,Chrome,"Mozilla/5.0 (Macintosh; Intel Mac OS X 10_15_7) AppleWebKit/537.36 (KHTML, like Gecko) Chrome/98.0.4758.80 Safari/537.36",60,,,,,,,,,,,,,,,,,,,,,,,,,,,,,,,,,,,,,,,,,,,,,,,,,,,,,,,,,,,,,,,,,,,,,,,,28,0,28,0,1,,,,,,,,,,,,,,,,,,,,,,,,,,,,,,,,,,,,,,,,,,,,,,,,,,,,,,,,,,,,,,,,,
,,,,,,,,,,,,,,,,,2,2022-02-14_11h57.42.695,Initiation_Initiation,2020.1.3,MacIntel,Chrome,"Mozilla/5.0 (Macintosh; Intel Mac OS X 10_15_7) AppleWebKit/537.36 (KHTML, like Gecko) Chrome/98.0.4758.80 Safari/537.36",60,,,,,,,,,,,,,,,,,,,,,,,,,,,,,,,,,1,1,1,Hand,u,TR,0,0,29,1,0,1,0.647331018,1,u,1.3617,1,1,,,,,,,,,,,,,u,1,,,,,,,,,,,,,1.3617,0,0,0,0,1,,,,,,,,,,,,,,,,,,,,,,,,,,,,,,,,,,,,,,,,,,,,,,,,,,,,,,,,,,,
,,,,,,,,,,,,,,,,,2,2022-02-14_11h57.42.695,Initiation_Initiation,2020.1.3,MacIntel,Chrome,"Mozilla/5.0 (Macintosh; Intel Mac OS X 10_15_7) AppleWebKit/537.36 (KHTML, like Gecko) Chrome/98.0.4758.80 Safari/537.36",60,,,,,,,,,,,,,,,,,,,,,,,,,,,,,,,,,,,,,,,,,,,,,,,,,,,,,,,,,,,,,,,,,,,,,,,,29,0,29,0,1,,,,,,,,,,,,,,,,,,,,,,,,,,,,,,,,,,,,,,,,,,,,,,,,,,,,,,,,,,,,,,,,,
,,,,,,,,,,,,,,,,,2,2022-02-14_11h57.42.695,Initiation_Initiation,2020.1.3,MacIntel,Chrome,"Mozilla/5.0 (Macintosh; Intel Mac OS X 10_15_7) AppleWebKit/537.36 (KHTML, like Gecko) Chrome/98.0.4758.80 Safari/537.36",60,,,,,,,,,,,,,,,,,,,,,,,,,,,,,,,,,0,0,0,Hand,h,TR,0,0,30,1,0,1,0.015586093,1,i,1.4282,2,0,,,,,,,,,,,,,i,0,,,,,,,,,,,,,1.4282,0,0,0,0,1,,,,,,,,,,,,,,,,,,,,,,,,,,,,,,,,,,,,,,,,,,,,,,,,,,,,,,,,,,,
,,,,,,,,,,,,,,,,,2,2022-02-14_11h57.42.695,Initiation_Initiation,2020.1.3,MacIntel,Chrome,"Mozilla/5.0 (Macintosh; Intel Mac OS X 10_15_7) AppleWebKit/537.36 (KHTML, like Gecko) Chrome/98.0.4758.80 Safari/537.36",60,,,,,,,,,,,,,,,,,,,,,,,,,,,,,,,,,,,,,,,,,,,,,,,,,,,,,,,,,,,,,,,,,,,,,,,,30,0,30,0,1,,,,,,,,,,,,,,,,,,,,,,,,,,,,,,,,,,,,,,,,,,,,,,,,,,,,,,,,,,,,,,,,,
,,,,,,,,,,,,,,,,,2,2022-02-14_11h57.42.695,Initiation_Initiation,2020.1.3,MacIntel,Chrome,"Mozilla/5.0 (Macintosh; Intel Mac OS X 10_15_7) AppleWebKit/537.36 (KHTML, like Gecko) Chrome/98.0.4758.80 Safari/537.36",60,,,,,,,,,,,,,,,,,,,,,,,,,,,,,,,,,3,3,3,Hand,l,TR,0,0,31,1,0,1,0.999594072,1,l,1.2321,3,1,,,,,,,,,,,,,l,1,,,,,,,,,,,,,1.2321,0,0,0,0,1,,,,,,,,,,,,,,,,,,,,,,,,,,,,,,,,,,,,,,,,,,,,,,,,,,,,,,,,,,,
,,,,,,,,,,,,,,,,,2,2022-02-14_11h57.42.695,Initiation_Initiation,2020.1.3,MacIntel,Chrome,"Mozilla/5.0 (Macintosh; Intel Mac OS X 10_15_7) AppleWebKit/537.36 (KHTML, like Gecko) Chrome/98.0.4758.80 Safari/537.36",60,,,,,,,,,,,,,,,,,,,,,,,,,,,,,,,,,,,,,,,,,,,,,,,,,,,,,,,,,,,,,,,,,,,,,,,,31,0,31,0,1,,,,,,,,,,,,,,,,,,,,,,,,,,,,,,,,,,,,,,,,,,,,,,,,,,,,,,,,,,,,,,,,,
,,,,,,,,,,,,,,,,,2,2022-02-14_11h57.42.695,Initiation_Initiation,2020.1.3,MacIntel,Chrome,"Mozilla/5.0 (Macintosh; Intel Mac OS X 10_15_7) AppleWebKit/537.36 (KHTML, like Gecko) Chrome/98.0.4758.80 Safari/537.36",60,,,,,,,,,,,,,,,,,,,,,,,,,,,,,,,,,1,1,1,Hand,u,TR,0,0,32,1,0,1,0.351657015,1,u,1.3793,1,1,,,,,,,,,,,,,u,1,,,,,,,,,,,,,1.3793,0,0,0,0,1,,,,,,,,,,,,,,,,,,,,,,,,,,,,,,,,,,,,,,,,,,,,,,,,,,,,,,,,,,,
,,,,,,,,,,,,,,,,,2,2022-02-14_11h57.42.695,Initiation_Initiation,2020.1.3,MacIntel,Chrome,"Mozilla/5.0 (Macintosh; Intel Mac OS X 10_15_7) AppleWebKit/537.36 (KHTML, like Gecko) Chrome/98.0.4758.80 Safari/537.36",60,,,,,,,,,,,,,,,,,,,,,,,,,,,,,,,,,,,,,,,,,,,,,,,,,,,,,,,,,,,,,,,,,,,,,,,,32,0,32,0,1,,,,,,,,,,,,,,,,,,,,,,,,,,,,,,,,,,,,,,,,,,,,,,,,,,,,,,,,,,,,,,,,,
,,,,,,,,,,,,,,,,,2,2022-02-14_11h57.42.695,Initiation_Initiation,2020.1.3,MacIntel,Chrome,"Mozilla/5.0 (Macintosh; Intel Mac OS X 10_15_7) AppleWebKit/537.36 (KHTML, like Gecko) Chrome/98.0.4758.80 Safari/537.36",60,,,,,,,,,,,,,,,,,,,,,,,,,,,,,,,,,0,0,0,Hand,h,TR,0,0,33,1,0,1,0.769016297,1,h,1.4587,0,1,,,,,,,,,,,,,h,1,,,,,,,,,,,,,1.4587,0,0,0,0,1,,,,,,,,,,,,,,,,,,,,,,,,,,,,,,,,,,,,,,,,,,,,,,,,,,,,,,,,,,,
,,,,,,,,,,,,,,,,,2,2022-02-14_11h57.42.695,Initiation_Initiation,2020.1.3,MacIntel,Chrome,"Mozilla/5.0 (Macintosh; Intel Mac OS X 10_15_7) AppleWebKit/537.36 (KHTML, like Gecko) Chrome/98.0.4758.80 Safari/537.36",60,,,,,,,,,,,,,,,,,,,,,,,,,,,,,,,,,,,,,,,,,,,,,,,,,,,,,,,,,,,,,,,,,,,,,,,,33,0,33,0,1,,,,,,,,,,,,,,,,,,,,,,,,,,,,,,,,,,,,,,,,,,,,,,,,,,,,,,,,,,,,,,,,,
,,,,,,,,,,,,,,,,,2,2022-02-14_11h57.42.695,Initiation_Initiation,2020.1.3,MacIntel,Chrome,"Mozilla/5.0 (Macintosh; Intel Mac OS X 10_15_7) AppleWebKit/537.36 (KHTML, like Gecko) Chrome/98.0.4758.80 Safari/537.36",60,,,,,,,,,,,,,,,,,,,,,,,,,,,,,,,,,3,3,3,Hand,l,TR,0,0,34,1,0,1,0.722171196,1,l,1.4263,3,1,,,,,,,,,,,,,l,1,,,,,,,,,,,,,1.4263,0,0,0,0,1,,,,,,,,,,,,,,,,,,,,,,,,,,,,,,,,,,,,,,,,,,,,,,,,,,,,,,,,,,,
,,,,,,,,,,,,,,,,,2,2022-02-14_11h57.42.695,Initiation_Initiation,2020.1.3,MacIntel,Chrome,"Mozilla/5.0 (Macintosh; Intel Mac OS X 10_15_7) AppleWebKit/537.36 (KHTML, like Gecko) Chrome/98.0.4758.80 Safari/537.36",60,,,,,,,,,,,,,,,,,,,,,,,,,,,,,,,,,,,,,,,,,,,,,,,,,,,,,,,,,,,,,,,,,,,,,,,,34,0,34,0,1,,,,,,,,,,,,,,,,,,,,,,,,,,,,,,,,,,,,,,,,,,,,,,,,,,,,,,,,,,,,,,,,,
,,,,,,,,,,,,,,,,,2,2022-02-14_11h57.42.695,Initiation_Initiation,2020.1.3,MacIntel,Chrome,"Mozilla/5.0 (Macintosh; Intel Mac OS X 10_15_7) AppleWebKit/537.36 (KHTML, like Gecko) Chrome/98.0.4758.80 Safari/537.36",60,,,,,,,,,,,,,,,,,,,,,,,,,,,,,,,,,3,3,3,Hand,l,TR,0,0,35,1,0,1,0.273979963,1,l,1.3937,3,1,,,,,,,,,,,,,l,1,,,,,,,,,,,,,1.3937,0,0,0,0,1,,,,,,,,,,,,,,,,,,,,,,,,,,,,,,,,,,,,,,,,,,,,,,,,,,,,,,,,,,,
,,,,,,,,,,,,,,,,,2,2022-02-14_11h57.42.695,Initiation_Initiation,2020.1.3,MacIntel,Chrome,"Mozilla/5.0 (Macintosh; Intel Mac OS X 10_15_7) AppleWebKit/537.36 (KHTML, like Gecko) Chrome/98.0.4758.80 Safari/537.36",60,,,,,,,,,,,,,,,,,,,,,,,,,,,,,,,,,,,,,,,,,,,,,,,,,,,,,,,,,,,,,,,,,,,,,,,,35,0,35,0,1,,,,,,,,,,,,,,,,,,,,,,,,,,,,,,,,,,,,,,,,,,,,,,,,,,,,,,,,,,,,,,,,,
,,,,,,,,,,,,,,,,,2,2022-02-14_11h57.42.695,Initiation_Initiation,2020.1.3,MacIntel,Chrome,"Mozilla/5.0 (Macintosh; Intel Mac OS X 10_15_7) AppleWebKit/537.36 (KHTML, like Gecko) Chrome/98.0.4758.80 Safari/537.36",60,,,,,,,,,,,,,,,,,,,,,,,,,,,,,,,,,0,0,0,Hand,h,TR,0,0,36,1,0,1,0.153665996,1,a,99,8,0,,,,,,,,,,,,,,0,u,0.0018,0,0,0,0,1,,,,,,,,,,,,,,,,,,,,,,,,,,,,,,,,,,,,,,,,,,,,,,,,,,,,,,,,,,,,,,,,,,,,,,
,,,,,,,,,,,,,,,,,2,2022-02-14_11h57.42.695,Initiation_Initiation,2020.1.3,MacIntel,Chrome,"Mozilla/5.0 (Macintosh; Intel Mac OS X 10_15_7) AppleWebKit/537.36 (KHTML, like Gecko) Chrome/98.0.4758.80 Safari/537.36",60,,,,,,,,,,,,,,,,,,,,,,,,,,,,,,,,,,,,,,,,,,,,,,,,,,,,,,,,,,,,,,,,,,,,,,,,36,0,36,0,1,,,,,,,,,,,,,,,,,,,,,,,,,,,,,,,,,,,,,,,,,,,,,,,,,,,,,,,,,,,,,,,,,
,,,,,,,,,,,,,,,,,2,2022-02-14_11h57.42.695,Initiation_Initiation,2020.1.3,MacIntel,Chrome,"Mozilla/5.0 (Macintosh; Intel Mac OS X 10_15_7) AppleWebKit/537.36 (KHTML, like Gecko) Chrome/98.0.4758.80 Safari/537.36",60,,,,,,,,,,,,,,,,,,,,,,,,,,,,,,,,,1,1,1,Hand,u,TR,0,0,37,1,0,1,0.859134269,1,u,1.3934,1,1,,,,,,,,,,,,,u,1,,,,,,,,,,,,,1.3934,0,0,0,0,1,,,,,,,,,,,,,,,,,,,,,,,,,,,,,,,,,,,,,,,,,,,,,,,,,,,,,,,,,,,
,,,,,,,,,,,,,,,,,2,2022-02-14_11h57.42.695,Initiation_Initiation,2020.1.3,MacIntel,Chrome,"Mozilla/5.0 (Macintosh; Intel Mac OS X 10_15_7) AppleWebKit/537.36 (KHTML, like Gecko) Chrome/98.0.4758.80 Safari/537.36",60,,,,,,,,,,,,,,,,,,,,,,,,,,,,,,,,,,,,,,,,,,,,,,,,,,,,,,,,,,,,,,,,,,,,,,,,37,0,37,0,1,,,,,,,,,,,,,,,,,,,,,,,,,,,,,,,,,,,,,,,,,,,,,,,,,,,,,,,,,,,,,,,,,
,,,,,,,,,,,,,,,,,2,2022-02-14_11h57.42.695,Initiation_Initiation,2020.1.3,MacIntel,Chrome,"Mozilla/5.0 (Macintosh; Intel Mac OS X 10_15_7) AppleWebKit/537.36 (KHTML, like Gecko) Chrome/98.0.4758.80 Safari/537.36",60,,,,,,,,,,,,,,,,,,,,,,,,,,,,,,,,,2,2,2,Hand,i,TR,0,0,38,1,0,1,0.914531723,1,i,1.2782,2,1,,,,,,,,,,,,,i,1,,,,,,,,,,,,,1.2782,0,0,0,0,1,,,,,,,,,,,,,,,,,,,,,,,,,,,,,,,,,,,,,,,,,,,,,,,,,,,,,,,,,,,
,,,,,,,,,,,,,,,,,2,2022-02-14_11h57.42.695,Initiation_Initiation,2020.1.3,MacIntel,Chrome,"Mozilla/5.0 (Macintosh; Intel Mac OS X 10_15_7) AppleWebKit/537.36 (KHTML, like Gecko) Chrome/98.0.4758.80 Safari/537.36",60,,,,,,,,,,,,,,,,,,,,,,,,,,,,,,,,,,,,,,,,,,,,,,,,,,,,,,,,,,,,,,,,,,,,,,,,38,0,38,0,1,,,,,,,,,,,,,,,,,,,,,,,,,,,,,,,,,,,,,,,,,,,,,,,,,,,,,,,,,,,,,,,,,
,,,,,,,,,,,,,,,,,2,2022-02-14_11h57.42.695,Initiation_Initiation,2020.1.3,MacIntel,Chrome,"Mozilla/5.0 (Macintosh; Intel Mac OS X 10_15_7) AppleWebKit/537.36 (KHTML, like Gecko) Chrome/98.0.4758.80 Safari/537.36",60,,,,,,,,,,,,,,,,,,,,,,,,,,,,,,,,,2,2,2,Hand,i,TR,0,0,39,1,0,1,0.382565825,1,i,1.2292,2,1,,,,,,,,,,,,,i,1,,,,,,,,,,,,,1.2292,0,0,0,0,1,,,,,,,,,,,,,,,,,,,,,,,,,,,,,,,,,,,,,,,,,,,,,,,,,,,,,,,,,,,
,,,,,,,,,,,,,,,,,2,2022-02-14_11h57.42.695,Initiation_Initiation,2020.1.3,MacIntel,Chrome,"Mozilla/5.0 (Macintosh; Intel Mac OS X 10_15_7) AppleWebKit/537.36 (KHTML, like Gecko) Chrome/98.0.4758.80 Safari/537.36",60,,,,,,,,,,,,,,,,,,,,,,,,,,,,,,,,,,,,,,,,,,,,,,,,,,,,,,,,,,,,,,,,,,,,,,,,39,0,39,0,1,,,,,,,,,,,,,,,,,,,,,,,,,,,,,,,,,,,,,,,,,,,,,,,,,,,,,,,,,,,,,,,,,
,,,,,,,,,,,,,,,,,2,2022-02-14_11h57.42.695,Initiation_Initiation,2020.1.3,MacIntel,Chrome,"Mozilla/5.0 (Macintosh; Intel Mac OS X 10_15_7) AppleWebKit/537.36 (KHTML, like Gecko) Chrome/98.0.4758.80 Safari/537.36",60,,,,,,,,,,,,,,,,,,,,,,,,,,,,,,,,,2,2,2,Hand,i,TR,0,0,40,1,0,1,0.591164053,1,i,1.3292,2,1,,,,,,,,,,,,,i,1,,,,,,,,,,,,,1.3292,0,0,0,0,1,,,,,,,,,,,,,,,,,,,,,,,,,,,,,,,,,,,,,,,,,,,,,,,,,,,,,,,,,,,
,,,,,,,,,,,,,,,,,2,2022-02-14_11h57.42.695,Initiation_Initiation,2020.1.3,MacIntel,Chrome,"Mozilla/5.0 (Macintosh; Intel Mac OS X 10_15_7) AppleWebKit/537.36 (KHTML, like Gecko) Chrome/98.0.4758.80 Safari/537.36",60,,,,,,,,,,,,,,,,,,,,,,,,,,,,,,,,,,,,,,,,,,,,,,,,,,,,,,,,,,,,,,,,,,,,,,,,40,0,40,0,1,,,,,,,,,,,,,,,,,,,,,,,,,,,,,,,,,,,,,,,,,,,,,,,,,,,,,,,,,,,,,,,,,
,,,,,,,,,,,,,,,,,2,2022-02-14_11h57.42.695,Initiation_Initiation,2020.1.3,MacIntel,Chrome,"Mozilla/5.0 (Macintosh; Intel Mac OS X 10_15_7) AppleWebKit/537.36 (KHTML, like Gecko) Chrome/98.0.4758.80 Safari/537.36",60,,,,,,,,,,,,,,,,,,,,,,,,,,,,,,,,,3,3,3,Hand,l,TR,0,0,41,1,0,1,0.099375723,1,a,99,8,0,,,,,,,,,,,,,,0,u,5.1465,0,0,0,0,1,,,,,,,,,,,,,,,,,,,,,,,,,,,,,,,,,,,,,,,,,,,,,,,,,,,,,,,,,,,,,,,,,,,,,,
,,,,,,,,,,,,,,,,,2,2022-02-14_11h57.42.695,Initiation_Initiation,2020.1.3,MacIntel,Chrome,"Mozilla/5.0 (Macintosh; Intel Mac OS X 10_15_7) AppleWebKit/537.36 (KHTML, like Gecko) Chrome/98.0.4758.80 Safari/537.36",60,,,,,,,,,,,,,,,,,,,,,,,,,,,,,,,,,,,,,,,,,,,,,,,,,,,,,,,,,,,,,,,,,,,,,,,,41,0,41,0,1,,,,,,,,,,,,,,,,,,,,,,,,,,,,,,,,,,,,,,,,,,,,,,,,,,,,,,,,,,,,,,,,,
,,,,,,,,,,,,,,,,,2,2022-02-14_11h57.42.695,Initiation_Initiation,2020.1.3,MacIntel,Chrome,"Mozilla/5.0 (Macintosh; Intel Mac OS X 10_15_7) AppleWebKit/537.36 (KHTML, like Gecko) Chrome/98.0.4758.80 Safari/537.36",60,,,,,,,,,,,,,,,,,,,,,,,,,,,,,,,,,3,3,3,Hand,l,TR,0,0,42,1,0,1,0.024830805,1,u,1.2459,1,0,,,,,,,,,,,,,u,0,,,,,,,,,,,,,1.2459,0,0,0,0,1,,,,,,,,,,,,,,,,,,,,,,,,,,,,,,,,,,,,,,,,,,,,,,,,,,,,,,,,,,,
,,,,,,,,,,,,,,,,,2,2022-02-14_11h57.42.695,Initiation_Initiation,2020.1.3,MacIntel,Chrome,"Mozilla/5.0 (Macintosh; Intel Mac OS X 10_15_7) AppleWebKit/537.36 (KHTML, like Gecko) Chrome/98.0.4758.80 Safari/537.36",60,,,,,,,,,,,,,,,,,,,,,,,,,,,,,,,,,,,,,,,,,,,,,,,,,,,,,,,,,,,,,,,,,,,,,,,,42,0,42,0,1,,,,,,,,,,,,,,,,,,,,,,,,,,,,,,,,,,,,,,,,,,,,,,,,,,,,,,,,,,,,,,,,,
,,,,,,,,,,,,,,,,,2,2022-02-14_11h57.42.695,Initiation_Initiation,2020.1.3,MacIntel,Chrome,"Mozilla/5.0 (Macintosh; Intel Mac OS X 10_15_7) AppleWebKit/537.36 (KHTML, like Gecko) Chrome/98.0.4758.80 Safari/537.36",60,,,,,,,,,,,,,,,,,,,,,,,,,,,,,,,,,1,1,1,Hand,u,TR,0,0,43,1,0,1,0.940272675,1,u,1.3977,1,1,,,,,,,,,,,,,u,1,,,,,,,,,,,,,1.3977,0,0,0,0,1,,,,,,,,,,,,,,,,,,,,,,,,,,,,,,,,,,,,,,,,,,,,,,,,,,,,,,,,,,,
,,,,,,,,,,,,,,,,,2,2022-02-14_11h57.42.695,Initiation_Initiation,2020.1.3,MacIntel,Chrome,"Mozilla/5.0 (Macintosh; Intel Mac OS X 10_15_7) AppleWebKit/537.36 (KHTML, like Gecko) Chrome/98.0.4758.80 Safari/537.36",60,,,,,,,,,,,,,,,,,,,,,,,,,,,,,,,,,,,,,,,,,,,,,,,,,,,,,,,,,,,,,,,,,,,,,,,,43,0,43,0,1,,,,,,,,,,,,,,,,,,,,,,,,,,,,,,,,,,,,,,,,,,,,,,,,,,,,,,,,,,,,,,,,,
,,,,,,,,,,,,,,,,,2,2022-02-14_11h57.42.695,Initiation_Initiation,2020.1.3,MacIntel,Chrome,"Mozilla/5.0 (Macintosh; Intel Mac OS X 10_15_7) AppleWebKit/537.36 (KHTML, like Gecko) Chrome/98.0.4758.80 Safari/537.36",60,,,,,,,,,,,,,,,,,,,,,,,,,,,,,,,,,1,1,1,Hand,u,TR,0,0,44,1,0,1,0.985934963,1,u,1.3632,1,1,,,,,,,,,,,,,u,1,,,,,,,,,,,,,1.3632,0,0,0,0,1,,,,,,,,,,,,,,,,,,,,,,,,,,,,,,,,,,,,,,,,,,,,,,,,,,,,,,,,,,,
,,,,,,,,,,,,,,,,,2,2022-02-14_11h57.42.695,Initiation_Initiation,2020.1.3,MacIntel,Chrome,"Mozilla/5.0 (Macintosh; Intel Mac OS X 10_15_7) AppleWebKit/537.36 (KHTML, like Gecko) Chrome/98.0.4758.80 Safari/537.36",60,,,,,,,,,,,,,,,,,,,,,,,,,,,,,,,,,,,,,,,,,,,,,,,,,,,,,,,,,,,,,,,,,,,,,,,,44,0,44,0,1,,,,,,,,,,,,,,,,,,,,,,,,,,,,,,,,,,,,,,,,,,,,,,,,,,,,,,,,,,,,,,,,,
,,,,,,,,,,,,,,,,,2,2022-02-14_11h57.42.695,Initiation_Initiation,2020.1.3,MacIntel,Chrome,"Mozilla/5.0 (Macintosh; Intel Mac OS X 10_15_7) AppleWebKit/537.36 (KHTML, like Gecko) Chrome/98.0.4758.80 Safari/537.36",60,,,,,,,,,,,,,,,,,,,,,,,,,,,,,,,,,0,0,0,Hand,h,TR,0,0,45,1,0,1,0.928444095,1,h,1.1611,0,1,,,,,,,,,,,,,h,1,,,,,,,,,,,,,1.1611,0,0,0,0,1,,,,,,,,,,,,,,,,,,,,,,,,,,,,,,,,,,,,,,,,,,,,,,,,,,,,,,,,,,,
,,,,,,,,,,,,,,,,,2,2022-02-14_11h57.42.695,Initiation_Initiation,2020.1.3,MacIntel,Chrome,"Mozilla/5.0 (Macintosh; Intel Mac OS X 10_15_7) AppleWebKit/537.36 (KHTML, like Gecko) Chrome/98.0.4758.80 Safari/537.36",60,,,,,,,,,,,,,,,,,,,,,,,,,,,,,,,,,,,,,,,,,,,,,,,,,,,,,,,,,,,,,,,,,,,,,,,,45,0,45,0,1,,,,,,,,,,,,,,,,,,,,,,,,,,,,,,,,,,,,,,,,,,,,,,,,,,,,,,,,,,,,,,,,,
,,,,,,,,,,,,,,,,,2,2022-02-14_11h57.42.695,Initiation_Initiation,2020.1.3,MacIntel,Chrome,"Mozilla/5.0 (Macintosh; Intel Mac OS X 10_15_7) AppleWebKit/537.36 (KHTML, like Gecko) Chrome/98.0.4758.80 Safari/537.36",60,,,,,,,,,,,,,,,,,,,,,,,,,,,,,,,,,0,0,0,Hand,h,TR,0,0,46,1,0,1,1.174502542,1,h,1.1964,0,1,,,,,,,,,,,,,h,1,,,,,,,,,,,,,1.1964,0,0,0,0,1,,,,,,,,,,,,,,,,,,,,,,,,,,,,,,,,,,,,,,,,,,,,,,,,,,,,,,,,,,,
,,,,,,,,,,,,,,,,,2,2022-02-14_11h57.42.695,Initiation_Initiation,2020.1.3,MacIntel,Chrome,"Mozilla/5.0 (Macintosh; Intel Mac OS X 10_15_7) AppleWebKit/537.36 (KHTML, like Gecko) Chrome/98.0.4758.80 Safari/537.36",60,,,,,,,,,,,,,,,,,,,,,,,,,,,,,,,,,,,,,,,,,,,,,,,,,,,,,,,,,,,,,,,,,,,,,,,,46,0,46,0,1,,,,,,,,,,,,,,,,,,,,,,,,,,,,,,,,,,,,,,,,,,,,,,,,,,,,,,,,,,,,,,,,,
,,,,,,,,,,,,,,,,,2,2022-02-14_11h57.42.695,Initiation_Initiation,2020.1.3,MacIntel,Chrome,"Mozilla/5.0 (Macintosh; Intel Mac OS X 10_15_7) AppleWebKit/537.36 (KHTML, like Gecko) Chrome/98.0.4758.80 Safari/537.36",60,,,,,,,,,,,,,,,,,,,,,,,,,,,,,,,,,2,2,2,Hand,i,TR,0,0,47,1,0,1,0.990713367,1,i,1.314,2,1,,,,,,,,,,,,,i,1,,,,,,,,,,,,,1.314,0,0,0,0,1,,,,,,,,,,,,,,,,,,,,,,,,,,,,,,,,,,,,,,,,,,,,,,,,,,,,,,,,,,,
,,,,,,,,,,,,,,,,,2,2022-02-14_11h57.42.695,Initiation_Initiation,2020.1.3,MacIntel,Chrome,"Mozilla/5.0 (Macintosh; Intel Mac OS X 10_15_7) AppleWebKit/537.36 (KHTML, like Gecko) Chrome/98.0.4758.80 Safari/537.36",60,,,,,,,,,,,,,,,,,,,,,,,,,,,,,,,,,,,,,,,,,,,,,,,,,,,,,,,,,,,,,,,,,,,,,,,,47,0,47,0,1,,,,,,,,,,,,,,,,,,,,,,,,,,,,,,,,,,,,,,,,,,,,,,,,,,,,,,,,,,,,,,,,,
,,,,,,,,,,,,,,,,,2,2022-02-14_11h57.42.695,Initiation_Initiation,2020.1.3,MacIntel,Chrome,"Mozilla/5.0 (Macintosh; Intel Mac OS X 10_15_7) AppleWebKit/537.36 (KHTML, like Gecko) Chrome/98.0.4758.80 Safari/537.36",60,,,,,,,,,,,,,,,,,,,,,,,,,,,,,,,,,2,2,2,Hand,i,TR,0,0,48,1,0,1,0.394496956,1,i,1.3293,2,1,,,,,,,,,,,,,i,1,,,,,,,,,,,,,1.3293,0,0,0,0,1,,,,,,,,,,,,,,,,,,,,,,,,,,,,,,,,,,,,,,,,,,,,,,,,,,,,,,,,,,,
,,,,,,,,,,,,,,,,,2,2022-02-14_11h57.42.695,Initiation_Initiation,2020.1.3,MacIntel,Chrome,"Mozilla/5.0 (Macintosh; Intel Mac OS X 10_15_7) AppleWebKit/537.36 (KHTML, like Gecko) Chrome/98.0.4758.80 Safari/537.36",60,,,,,,,,,,,,,,,,,,,,,,,,,,,,,,,,,,,,,,,,,,,,,,,,,,,,,,,,,,,,,,,,,,,,,,,,48,0,48,0,1,,,,,,,,,,,,,,,,,,,,,,,,,,,,,,,,,,,,,,,,,,,,,,,,,,,,,,,,,,,,,,,,,
,,,,,,,,,,,,,,,,,2,2022-02-14_11h57.42.695,Initiation_Initiation,2020.1.3,MacIntel,Chrome,"Mozilla/5.0 (Macintosh; Intel Mac OS X 10_15_7) AppleWebKit/537.36 (KHTML, like Gecko) Chrome/98.0.4758.80 Safari/537.36",60,,,,,,,,,,,,,,,,,,,,,,,,,,,,,,,,,0,0,0,Hand,h,TR,0,0,49,1,0,1,0.367136439,1,h,1.4127,0,1,,,,,,,,,,,,,h,1,,,,,,,,,,,,,1.4127,0,0,0,0,1,,,,,,,,,,,,,,,,,,,,,,,,,,,,,,,,,,,,,,,,,,,,,,,,,,,,,,,,,,,
,,,,,,,,,,,,,,,,,2,2022-02-14_11h57.42.695,Initiation_Initiation,2020.1.3,MacIntel,Chrome,"Mozilla/5.0 (Macintosh; Intel Mac OS X 10_15_7) AppleWebKit/537.36 (KHTML, like Gecko) Chrome/98.0.4758.80 Safari/537.36",60,,,,,,,,,,,,,,,,,,,,,,,,,,,,,,,,,,,,,,,,,,,,,,,,,,,,,,,,,,,,,,,,,,,,,,,,49,0,49,0,1,,,,,,,,,,,,,,,,,,,,,,,,,,,,,,,,,,,,,,,,,,,,,,,,,,,,,,,,,,,,,,,,,
,,,,,,,,,,,,,,,,,2,2022-02-14_11h57.42.695,Initiation_Initiation,2020.1.3,MacIntel,Chrome,"Mozilla/5.0 (Macintosh; Intel Mac OS X 10_15_7) AppleWebKit/537.36 (KHTML, like Gecko) Chrome/98.0.4758.80 Safari/537.36",60,,,,,,,,,,,,,,,,,,,,,,,,,,,,,,,,,3,3,3,Hand,l,TR,0,0,50,1,0,1,0.815570608,1,l,1.227,3,1,,,,,,,,,,,,,l,1,,,,,,,,,,,,,1.227,0,0,0,0,1,,,,,,,,,,,,,,,,,,,,,,,,,,,,,,,,,,,,,,,,,,,,,,,,,,,,,,,,,,,
,,,,,,,,,,,,,,,,,2,2022-02-14_11h57.42.695,Initiation_Initiation,2020.1.3,MacIntel,Chrome,"Mozilla/5.0 (Macintosh; Intel Mac OS X 10_15_7) AppleWebKit/537.36 (KHTML, like Gecko) Chrome/98.0.4758.80 Safari/537.36",60,,,,,,,,,,,,,,,,,,,,,,,,,,,,,,,,,,,,,,,,,,,,,,,,,,,,,,,,,,,,,,,,,,,,,,,,50,0,50,0,1,,,,,,,,,,,,,,,,,,,,,,,,,,,,,,,,,,,,,,,,,,,,,,,,,,,,,,,,,,,,,,,,,
,,,,,,,,,,,,,,,,,2,2022-02-14_11h57.42.695,Initiation_Initiation,2020.1.3,MacIntel,Chrome,"Mozilla/5.0 (Macintosh; Intel Mac OS X 10_15_7) AppleWebKit/537.36 (KHTML, like Gecko) Chrome/98.0.4758.80 Safari/537.36",60,,,,,,,,,,,,,,,,,,,,,,,,,,,,,,,,,2,2,2,Hand,i,TR,0,0,51,1,0,1,0.736029476,1,i,1.4132,2,1,,,,,,,,,,,,,i,1,,,,,,,,,,,,,1.4132,0,0,0,0,1,,,,,,,,,,,,,,,,,,,,,,,,,,,,,,,,,,,,,,,,,,,,,,,,,,,,,,,,,,,
,,,,,,,,,,,,,,,,,2,2022-02-14_11h57.42.695,Initiation_Initiation,2020.1.3,MacIntel,Chrome,"Mozilla/5.0 (Macintosh; Intel Mac OS X 10_15_7) AppleWebKit/537.36 (KHTML, like Gecko) Chrome/98.0.4758.80 Safari/537.36",60,,,,,,,,,,,,,,,,,,,,,,,,,,,,,,,,,,,,,,,,,,,,,,,,,,,,,,,,,,,,,,,,,,,,,,,,51,0,51,0,1,,,,,,,,,,,,,,,,,,,,,,,,,,,,,,,,,,,,,,,,,,,,,,,,,,,,,,,,,,,,,,,,,
,,,,,,,,,,,,,,,,,2,2022-02-14_11h57.42.695,Initiation_Initiation,2020.1.3,MacIntel,Chrome,"Mozilla/5.0 (Macintosh; Intel Mac OS X 10_15_7) AppleWebKit/537.36 (KHTML, like Gecko) Chrome/98.0.4758.80 Safari/537.36",60,,,,,,,,,,,,,,,,,,,,,,,,,,,,,,,,,0,0,0,Hand,h,TR,0,0,52,1,0,1,0.238245205,1,u,1.2111,1,0,,,,,,,,,,,,,u,0,,,,,,,,,,,,,1.2111,0,0,0,0,1,,,,,,,,,,,,,,,,,,,,,,,,,,,,,,,,,,,,,,,,,,,,,,,,,,,,,,,,,,,
,,,,,,,,,,,,,,,,,2,2022-02-14_11h57.42.695,Initiation_Initiation,2020.1.3,MacIntel,Chrome,"Mozilla/5.0 (Macintosh; Intel Mac OS X 10_15_7) AppleWebKit/537.36 (KHTML, like Gecko) Chrome/98.0.4758.80 Safari/537.36",60,,,,,,,,,,,,,,,,,,,,,,,,,,,,,,,,,,,,,,,,,,,,,,,,,,,,,,,,,,,,,,,,,,,,,,,,52,0,52,0,1,,,,,,,,,,,,,,,,,,,,,,,,,,,,,,,,,,,,,,,,,,,,,,,,,,,,,,,,,,,,,,,,,
,,,,,,,,,,,,,,,,,2,2022-02-14_11h57.42.695,Initiation_Initiation,2020.1.3,MacIntel,Chrome,"Mozilla/5.0 (Macintosh; Intel Mac OS X 10_15_7) AppleWebKit/537.36 (KHTML, like Gecko) Chrome/98.0.4758.80 Safari/537.36",60,,,,,,,,,,,,,,,,,,,,,,,,,,,,,,,,,1,1,1,Hand,u,TR,0,0,53,1,0,1,1.060487881,1,u,1.2299,1,1,,,,,,,,,,,,,u,1,,,,,,,,,,,,,1.2299,0,0,0,0,1,,,,,,,,,,,,,,,,,,,,,,,,,,,,,,,,,,,,,,,,,,,,,,,,,,,,,,,,,,,
,,,,,,,,,,,,,,,,,2,2022-02-14_11h57.42.695,Initiation_Initiation,2020.1.3,MacIntel,Chrome,"Mozilla/5.0 (Macintosh; Intel Mac OS X 10_15_7) AppleWebKit/537.36 (KHTML, like Gecko) Chrome/98.0.4758.80 Safari/537.36",60,,,,,,,,,,,,,,,,,,,,,,,,,,,,,,,,,,,,,,,,,,,,,,,,,,,,,,,,,,,,,,,,,,,,,,,,53,0,53,0,1,,,,,,,,,,,,,,,,,,,,,,,,,,,,,,,,,,,,,,,,,,,,,,,,,,,,,,,,,,,,,,,,,
,,,,,,,,,,,,,,,,,2,2022-02-14_11h57.42.695,Initiation_Initiation,2020.1.3,MacIntel,Chrome,"Mozilla/5.0 (Macintosh; Intel Mac OS X 10_15_7) AppleWebKit/537.36 (KHTML, like Gecko) Chrome/98.0.4758.80 Safari/537.36",60,,,,,,,,,,,,,,,,,,,,,,,,,,,,,,,,,1,1,1,Hand,u,TR,0,0,54,1,0,1,0.222142877,1,i,1.3789,2,0,,,,,,,,,,,,,i,0,,,,,,,,,,,,,1.3789,0,0,0,0,1,,,,,,,,,,,,,,,,,,,,,,,,,,,,,,,,,,,,,,,,,,,,,,,,,,,,,,,,,,,
,,,,,,,,,,,,,,,,,2,2022-02-14_11h57.42.695,Initiation_Initiation,2020.1.3,MacIntel,Chrome,"Mozilla/5.0 (Macintosh; Intel Mac OS X 10_15_7) AppleWebKit/537.36 (KHTML, like Gecko) Chrome/98.0.4758.80 Safari/537.36",60,,,,,,,,,,,,,,,,,,,,,,,,,,,,,,,,,,,,,,,,,,,,,,,,,,,,,,,,,,,,,,,,,,,,,,,,54,0,54,0,1,,,,,,,,,,,,,,,,,,,,,,,,,,,,,,,,,,,,,,,,,,,,,,,,,,,,,,,,,,,,,,,,,
,,,,,,,,,,,,,,,,,2,2022-02-14_11h57.42.695,Initiation_Initiation,2020.1.3,MacIntel,Chrome,"Mozilla/5.0 (Macintosh; Intel Mac OS X 10_15_7) AppleWebKit/537.36 (KHTML, like Gecko) Chrome/98.0.4758.80 Safari/537.36",60,,,,,,,,,,,,,,,,,,,,,,,,,,,,,,,,,3,3,3,Hand,l,TR,0,0,55,1,0,1,0.237687441,1,i,1.4305,2,0,,,,,,,,,,,,,i,0,,,,,,,,,,,,,1.4305,0,0,0,0,1,,,,,,,,,,,,,,,,,,,,,,,,,,,,,,,,,,,,,,,,,,,,,,,,,,,,,,,,,,,
,,,,,,,,,,,,,,,,,2,2022-02-14_11h57.42.695,Initiation_Initiation,2020.1.3,MacIntel,Chrome,"Mozilla/5.0 (Macintosh; Intel Mac OS X 10_15_7) AppleWebKit/537.36 (KHTML, like Gecko) Chrome/98.0.4758.80 Safari/537.36",60,,,,,,,,,,,,,,,,,,,,,,,,,,,,,,,,,,,,,,,,,,,,,,,,,,,,,,,,,,,,,,,,,,,,,,,,55,0,55,0,1,,,,,,,,,,,,,,,,,,,,,,,,,,,,,,,,,,,,,,,,,,,,,,,,,,,,,,,,,,,,,,,,,
,,,,,,,,,,,,,,,,,2,2022-02-14_11h57.42.695,Initiation_Initiation,2020.1.3,MacIntel,Chrome,"Mozilla/5.0 (Macintosh; Intel Mac OS X 10_15_7) AppleWebKit/537.36 (KHTML, like Gecko) Chrome/98.0.4758.80 Safari/537.36",60,,,,,,,,,,,,,,,,,,,,,,,,,,,,,,,,,0,0,0,Hand,h,TR,0,0,56,1,0,1,0.416739799,1,h,1.3796,0,1,,,,,,,,,,,,,h,1,,,,,,,,,,,,,1.3796,0,0,0,0,1,,,,,,,,,,,,,,,,,,,,,,,,,,,,,,,,,,,,,,,,,,,,,,,,,,,,,,,,,,,
,,,,,,,,,,,,,,,,,2,2022-02-14_11h57.42.695,Initiation_Initiation,2020.1.3,MacIntel,Chrome,"Mozilla/5.0 (Macintosh; Intel Mac OS X 10_15_7) AppleWebKit/537.36 (KHTML, like Gecko) Chrome/98.0.4758.80 Safari/537.36",60,,,,,,,,,,,,,,,,,,,,,,,,,,,,,,,,,,,,,,,,,,,,,,,,,,,,,,,,,,,,,,,,,,,,,,,,56,0,56,0,1,,,,,,,,,,,,,,,,,,,,,,,,,,,,,,,,,,,,,,,,,,,,,,,,,,,,,,,,,,,,,,,,,
,,,,,,,,,,,,,,,,,2,2022-02-14_11h57.42.695,Initiation_Initiation,2020.1.3,MacIntel,Chrome,"Mozilla/5.0 (Macintosh; Intel Mac OS X 10_15_7) AppleWebKit/537.36 (KHTML, like Gecko) Chrome/98.0.4758.80 Safari/537.36",60,,,,,,,,,,,,,,,,,,,,,,,,,,,,,,,,,1,1,1,Hand,u,TR,0,0,57,1,0,1,0.847816468,1,u,1.3635,1,1,,,,,,,,,,,,,u,1,,,,,,,,,,,,,1.3635,0,0,0,0,1,,,,,,,,,,,,,,,,,,,,,,,,,,,,,,,,,,,,,,,,,,,,,,,,,,,,,,,,,,,
,,,,,,,,,,,,,,,,,2,2022-02-14_11h57.42.695,Initiation_Initiation,2020.1.3,MacIntel,Chrome,"Mozilla/5.0 (Macintosh; Intel Mac OS X 10_15_7) AppleWebKit/537.36 (KHTML, like Gecko) Chrome/98.0.4758.80 Safari/537.36",60,,,,,,,,,,,,,,,,,,,,,,,,,,,,,,,,,,,,,,,,,,,,,,,,,,,,,,,,,,,,,,,,,,,,,,,,57,0,57,0,1,,,,,,,,,,,,,,,,,,,,,,,,,,,,,,,,,,,,,,,,,,,,,,,,,,,,,,,,,,,,,,,,,
,,,,,,,,,,,,,,,,,2,2022-02-14_11h57.42.695,Initiation_Initiation,2020.1.3,MacIntel,Chrome,"Mozilla/5.0 (Macintosh; Intel Mac OS X 10_15_7) AppleWebKit/537.36 (KHTML, like Gecko) Chrome/98.0.4758.80 Safari/537.36",60,,,,,,,,,,,,,,,,,,,,,,,,,,,,,,,,,3,3,3,Hand,l,TR,0,0,58,1,0,1,0.129376643,1,i,1.263,2,0,,,,,,,,,,,,,i,0,,,,,,,,,,,,,1.263,0,0,0,0,1,,,,,,,,,,,,,,,,,,,,,,,,,,,,,,,,,,,,,,,,,,,,,,,,,,,,,,,,,,,
,,,,,,,,,,,,,,,,,2,2022-02-14_11h57.42.695,Initiation_Initiation,2020.1.3,MacIntel,Chrome,"Mozilla/5.0 (Macintosh; Intel Mac OS X 10_15_7) AppleWebKit/537.36 (KHTML, like Gecko) Chrome/98.0.4758.80 Safari/537.36",60,,,,,,,,,,,,,,,,,,,,,,,,,,,,,,,,,,,,,,,,,,,,,,,,,,,,,,,,,,,,,,,,,,,,,,,,58,0,58,0,1,,,,,,,,,,,,,,,,,,,,,,,,,,,,,,,,,,,,,,,,,,,,,,,,,,,,,,,,,,,,,,,,,
,,,,,,,,,,,,,,,,,2,2022-02-14_11h57.42.695,Initiation_Initiation,2020.1.3,MacIntel,Chrome,"Mozilla/5.0 (Macintosh; Intel Mac OS X 10_15_7) AppleWebKit/537.36 (KHTML, like Gecko) Chrome/98.0.4758.80 Safari/537.36",60,,,,,,,,,,,,,,,,,,,,,,,,,,,,,,,,,3,3,3,Hand,l,TR,0,0,59,1,0,1,0.293196428,1,h,1.3647,0,0,,,,,,,,,,,,,h,0,,,,,,,,,,,,,1.3647,0,0,0,0,1,,,,,,,,,,,,,,,,,,,,,,,,,,,,,,,,,,,,,,,,,,,,,,,,,,,,,,,,,,,
,,,,,,,,,,,,,,,,,2,2022-02-14_11h57.42.695,Initiation_Initiation,2020.1.3,MacIntel,Chrome,"Mozilla/5.0 (Macintosh; Intel Mac OS X 10_15_7) AppleWebKit/537.36 (KHTML, like Gecko) Chrome/98.0.4758.80 Safari/537.36",60,,,,,,,,,,,,,,,,,,,,,,,,,,,,,,,,,,,,,,,,,,,,,,,,,,,,,,,,,,,,,,,,,,,,,,,,59,0,59,0,1,,,,,,,,,,,,,,,,,,,,,,,,,,,,,,,,,,,,,,,,,,,,,,,,,,,,,,,,,,,,,,,,,
,,,,,,,,,,,,,,,,,2,2022-02-14_11h57.42.695,Initiation_Initiation,2020.1.3,MacIntel,Chrome,"Mozilla/5.0 (Macintosh; Intel Mac OS X 10_15_7) AppleWebKit/537.36 (KHTML, like Gecko) Chrome/98.0.4758.80 Safari/537.36",60,,,,,,,,,,,,,,,,,,,,,,,,,,,,,,,,,2,2,2,Hand,i,TR,0,0,60,1,0,1,0.918011451,1,i,1.1822,2,1,,,,,,,,,,,,,i,1,,,,,,,,,,,,,1.1822,0,0,0,0,1,,,,,,,,,,,,,,,,,,,,,,,,,,,,,,,,,,,,,,,,,,,,,,,,,,,,,,,,,,,
,,,,,,,,,,,,,,,,,2,2022-02-14_11h57.42.695,Initiation_Initiation,2020.1.3,MacIntel,Chrome,"Mozilla/5.0 (Macintosh; Intel Mac OS X 10_15_7) AppleWebKit/537.36 (KHTML, like Gecko) Chrome/98.0.4758.80 Safari/537.36",60,,,,,,,,,,,,,,,,,,,,,,,,,,,,,,,,,,,,,,,,,,,,,,,,,,,,,,,,,,,,,,,,,,,,,,,,60,0,60,0,1,,,,,,,,,,,,,,,,,,,,,,,,,,,,,,,,,,,,,,,,,,,,,,,,,,,,,,,,,,,,,,,,,
,,,,,,,,,,,,,,,,,2,2022-02-14_11h57.42.695,Initiation_Initiation,2020.1.3,MacIntel,Chrome,"Mozilla/5.0 (Macintosh; Intel Mac OS X 10_15_7) AppleWebKit/537.36 (KHTML, like Gecko) Chrome/98.0.4758.80 Safari/537.36",60,,,,,,,,,,,,,,,,,,,,,,,,,,,,,,,,,2,2,2,Hand,i,TR,0,0,61,1,0,1,0.541309952,1,i,1.2808,2,1,,,,,,,,,,,,,i,1,,,,,,,,,,,,,1.2808,0,0,0,0,1,,,,,,,,,,,,,,,,,,,,,,,,,,,,,,,,,,,,,,,,,,,,,,,,,,,,,,,,,,,
,,,,,,,,,,,,,,,,,2,2022-02-14_11h57.42.695,Initiation_Initiation,2020.1.3,MacIntel,Chrome,"Mozilla/5.0 (Macintosh; Intel Mac OS X 10_15_7) AppleWebKit/537.36 (KHTML, like Gecko) Chrome/98.0.4758.80 Safari/537.36",60,,,,,,,,,,,,,,,,,,,,,,,,,,,,,,,,,,,,,,,,,,,,,,,,,,,,,,,,,,,,,,,,,,,,,,,,61,0,61,0,1,,,,,,,,,,,,,,,,,,,,,,,,,,,,,,,,,,,,,,,,,,,,,,,,,,,,,,,,,,,,,,,,,
,,,,,,,,,,,,,,,,,2,2022-02-14_11h57.42.695,Initiation_Initiation,2020.1.3,MacIntel,Chrome,"Mozilla/5.0 (Macintosh; Intel Mac OS X 10_15_7) AppleWebKit/537.36 (KHTML, like Gecko) Chrome/98.0.4758.80 Safari/537.36",60,,,,,,,,,,,,,,,,,,,,,,,,,,,,,,,,,0,0,0,Hand,h,TR,0,0,62,1,0,1,0.766051238,1,h,1.263,0,1,,,,,,,,,,,,,h,1,,,,,,,,,,,,,1.263,0,0,0,0,1,,,,,,,,,,,,,,,,,,,,,,,,,,,,,,,,,,,,,,,,,,,,,,,,,,,,,,,,,,,
,,,,,,,,,,,,,,,,,2,2022-02-14_11h57.42.695,Initiation_Initiation,2020.1.3,MacIntel,Chrome,"Mozilla/5.0 (Macintosh; Intel Mac OS X 10_15_7) AppleWebKit/537.36 (KHTML, like Gecko) Chrome/98.0.4758.80 Safari/537.36",60,,,,,,,,,,,,,,,,,,,,,,,,,,,,,,,,,,,,,,,,,,,,,,,,,,,,,,,,,,,,,,,,,,,,,,,,62,0,62,0,1,,,,,,,,,,,,,,,,,,,,,,,,,,,,,,,,,,,,,,,,,,,,,,,,,,,,,,,,,,,,,,,,,
,,,,,,,,,,,,,,,,,2,2022-02-14_11h57.42.695,Initiation_Initiation,2020.1.3,MacIntel,Chrome,"Mozilla/5.0 (Macintosh; Intel Mac OS X 10_15_7) AppleWebKit/537.36 (KHTML, like Gecko) Chrome/98.0.4758.80 Safari/537.36",60,,,,,,,,,,,,,,,,,,,,,,,,,,,,,,,,,1,1,1,Hand,u,TR,0,0,63,1,0,1,1.166522452,1,u,1.2794,1,1,,,,,,,,,,,,,u,1,,,,,,,,,,,,,1.2794,0,0,0,0,1,,,,,,,,,,,,,,,,,,,,,,,,,,,,,,,,,,,,,,,,,,,,,,,,,,,,,,,,,,,
,,,,,,,,,,,,,,,,,2,2022-02-14_11h57.42.695,Initiation_Initiation,2020.1.3,MacIntel,Chrome,"Mozilla/5.0 (Macintosh; Intel Mac OS X 10_15_7) AppleWebKit/537.36 (KHTML, like Gecko) Chrome/98.0.4758.80 Safari/537.36",60,,,,,,,,,,,,,,,,,,,,,,,,,,,,,,,,,,,,,,,,,,,,,,,,,,,,,,,,,,,,,,,,,,,,,,,,63,0,63,0,1,,,,,,,,,,,,,,,,,,,,,,,,,,,,,,,,,,,,,,,,,,,,,,,,,,,,,,,,,,,,,,,,,
,,,,,,,,,,,,,,,,,2,2022-02-14_11h57.42.695,Initiation_Initiation,2020.1.3,MacIntel,Chrome,"Mozilla/5.0 (Macintosh; Intel Mac OS X 10_15_7) AppleWebKit/537.36 (KHTML, like Gecko) Chrome/98.0.4758.80 Safari/537.36",60,,,,,,,,,,,,,,,,,,,,,,,,,,,,,,,,,1,1,1,Hand,u,TR,0,0,64,1,0,1,0.959515754,1,u,1.3308,1,1,,,,,,,,,,,,,u,1,,,,,,,,,,,,,1.3308,0,0,0,0,1,,,,,,,,,,,,,,,,,,,,,,,,,,,,,,,,,,,,,,,,,,,,,,,,,,,,,,,,,,,
,,,,,,,,,,,,,,,,,2,2022-02-14_11h57.42.695,Initiation_Initiation,2020.1.3,MacIntel,Chrome,"Mozilla/5.0 (Macintosh; Intel Mac OS X 10_15_7) AppleWebKit/537.36 (KHTML, like Gecko) Chrome/98.0.4758.80 Safari/537.36",60,,,,,,,,,,,,,,,,,,,,,,,,,,,,,,,,,,,,,,,,,,,,,,,,,,,,,,,,,,,,,,,,,,,,,,,,64,0,64,0,1,,,,,,,,,,,,,,,,,,,,,,,,,,,,,,,,,,,,,,,,,,,,,,,,,,,,,,,,,,,,,,,,,
,,,,,,,,,,,,,,,,,2,2022-02-14_11h57.42.695,Initiation_Initiation,2020.1.3,MacIntel,Chrome,"Mozilla/5.0 (Macintosh; Intel Mac OS X 10_15_7) AppleWebKit/537.36 (KHTML, like Gecko) Chrome/98.0.4758.80 Safari/537.36",60,,,,,,,,,,,,,,,,,,,,,,,,,,,,,,,,,1,1,1,Hand,u,TR,0,0,65,1,0,1,0.255988485,1,u,1.3647,1,1,,,,,,,,,,,,,u,1,,,,,,,,,,,,,1.3647,0,0,0,0,1,,,,,,,,,,,,,,,,,,,,,,,,,,,,,,,,,,,,,,,,,,,,,,,,,,,,,,,,,,,
,,,,,,,,,,,,,,,,,2,2022-02-14_11h57.42.695,Initiation_Initiation,2020.1.3,MacIntel,Chrome,"Mozilla/5.0 (Macintosh; Intel Mac OS X 10_15_7) AppleWebKit/537.36 (KHTML, like Gecko) Chrome/98.0.4758.80 Safari/537.36",60,,,,,,,,,,,,,,,,,,,,,,,,,,,,,,,,,,,,,,,,,,,,,,,,,,,,,,,,,,,,,,,,,,,,,,,,65,0,65,0,1,,,,,,,,,,,,,,,,,,,,,,,,,,,,,,,,,,,,,,,,,,,,,,,,,,,,,,,,,,,,,,,,,
,,,,,,,,,,,,,,,,,2,2022-02-14_11h57.42.695,Initiation_Initiation,2020.1.3,MacIntel,Chrome,"Mozilla/5.0 (Macintosh; Intel Mac OS X 10_15_7) AppleWebKit/537.36 (KHTML, like Gecko) Chrome/98.0.4758.80 Safari/537.36",60,,,,,,,,,,,,,,,,,,,,,,,,,,,,,,,,,2,2,2,Hand,i,TR,0,0,66,1,0,1,0.228485077,1,u,1.3356,1,0,,,,,,,,,,,,,u,0,,,,,,,,,,,,,1.3356,0,0,0,0,1,,,,,,,,,,,,,,,,,,,,,,,,,,,,,,,,,,,,,,,,,,,,,,,,,,,,,,,,,,,
,,,,,,,,,,,,,,,,,2,2022-02-14_11h57.42.695,Initiation_Initiation,2020.1.3,MacIntel,Chrome,"Mozilla/5.0 (Macintosh; Intel Mac OS X 10_15_7) AppleWebKit/537.36 (KHTML, like Gecko) Chrome/98.0.4758.80 Safari/537.36",60,,,,,,,,,,,,,,,,,,,,,,,,,,,,,,,,,,,,,,,,,,,,,,,,,,,,,,,,,,,,,,,,,,,,,,,,66,0,66,0,1,,,,,,,,,,,,,,,,,,,,,,,,,,,,,,,,,,,,,,,,,,,,,,,,,,,,,,,,,,,,,,,,,
